thisN,thisTrialN,thisRepN,mouse.x,mouse.y,mouse.leftButton,mouse.midButton,mouse.rightButton,mouse.time,key_resp_5.keys,key_resp_5.rt,key_resp_5.duration,trials_3.thisRepN,trials_3.thisTrialN,trials_3.thisN,trials_3.thisIndex,trials_2.thisRepN,trials_2.thisTrialN,trials_2.thisN,trials_2.thisIndex,thisRow.t,notes,Welcome_Screen.started,Welcome_Text.started,mouse_2.started,Welcome_Screen.stopped,mouse_2.x,mouse_2.y,mouse_2.leftButton,mouse_2.midButton,mouse_2.rightButton,mouse_2.time,Trial_2.started,PLUS_FP.started,mouse.started,AVG.started,Photodiode_plus.started,Photodiode_plus.stopped,PLUS_FP.stopped,polygon.started,Photodiode_polygon.started,Photodiode_polygon.stopped,Trial_2.stopped,FixDur,Type,RT,trials_2.mouse.x,trials_2.mouse.y,trials_2.mouse.leftButton,trials_2.mouse.midButton,trials_2.mouse.rightButton,trials_2.mouse.time,Intertrial_Period.started,Photodiode_2.started,Photodiode_2.stopped,Intertrial_Period.stopped,BREAK.started,Instructions.started,key_resp_5.started,BREAK.stopped,trials_3.key_resp_5.keys,trials_3.key_resp_5.rt,trials_3.key_resp_5.duration,text.started,text.stopped,participant,session,date,expName,psychopyVersion,frameRate,expStart,
,,,,,,,,,,,,,,,,,,,,,,0.002980000339448452,0.011991799809038639,0.0028214994817972183,11.007287699729204,[-0.09722222222222222],[0.1527777777777778],[1],[0],[0],[11.003690999932587],,,,,,,,,,,,,,,,,,,,,,,,,,,,,,,,,,Bradley_Zn,001,2024-11-13_10h31.09.822,Foreperiod_task,2024.2.1post4,60.01579622195129,2024-11-13 10h31.20.448948 -0800,
0,0,0,[-0.13333333333333333],[0.14166666666666666],[1],[0],[0],[1.71535350009799],,,,0,0,0,0,0,0,0,0,11.021708000451326,,,,,,,,,,,,11.00878950022161,11.021708000451326,0.0013812007382512093,11.021708000451326,11.021708000451326,11.22213330026716,12.423282699659467,12.423282699659467,12.423282699659467,12.439852300100029,12.725051299668849,1.406076647586901,surprise,0.30927685251108894,[-0.13333333333333333],[0.14166666666666666],[1],[0],[0],[1.71535350009799],12.725509700365365,12.74017750006169,13.0404147002846,14.358857500366867,,,,,,,,,,Bradley_Zn,001,2024-11-13_10h31.09.822,Foreperiod_task,2024.2.1post4,60.01579622195129,2024-11-13 10h31.20.448948 -0800,
1,0,1,[-0.13333333333333333],[0.14166666666666666],[1],[0],[0],[2.284518700093031],,,,0,0,0,0,1,0,1,0,14.37493360042572,,,,,,,,,,,,14.3591234004125,14.37493360042572,0.00028190016746520996,14.37493360042572,14.37493360042572,14.574946099892259,16.36001109983772,16.36001109983772,16.36001109983772,16.376673500053585,16.644321700558066,2,normal,0.28451870009303093,[-0.13333333333333333],[0.14166666666666666],[1],[0],[0],[2.284518700093031],16.64470750000328,16.659989000298083,16.960634600371122,17.96209440007806,,,,,,,,,,Bradley_Zn,001,2024-11-13_10h31.09.822,Foreperiod_task,2024.2.1post4,60.01579622195129,2024-11-13 10h31.20.448948 -0800,
2,0,2,[-0.13518518518518519],[0.14166666666666666],[1],[0],[0],[2.2846298003569245],,,,0,0,0,0,2,0,2,0,17.978020300157368,,,,,,,,,,,,17.962377600371838,17.978020300157368,0.000295800156891346,17.978020300157368,17.978020300157368,18.178141999989748,19.962966799736023,19.962966799736023,19.962966799736023,19.979715299792588,20.247658899985254,2,normal,0.28462980035692453,[-0.13518518518518519],[0.14166666666666666],[1],[0],[0],[2.2846298003569245],20.24801869969815,20.26289079990238,20.5634631998837,21.865608700551093,,,,,,,,,,Bradley_Zn,001,2024-11-13_10h31.09.822,Foreperiod_task,2024.2.1post4,60.01579622195129,2024-11-13 10h31.20.448948 -0800,
3,0,3,[-0.13518518518518519],[0.14166666666666666],[1],[0],[0],[0.9000369003042579],,,,0,0,0,0,3,0,3,0,21.881389900110662,,,,,,,,,,,,21.866053899750113,21.881389900110662,0.0004537999629974365,21.881389900110662,21.881389900110662,22.081470999866724,22.36488789971918,22.36488789971918,22.36488789971918,22.381594399921596,22.76709510013461,0.5,normal,0.40003690030425787,[-0.13518518518518519],[0.14166666666666666],[1],[0],[0],[0.9000369003042579],22.767540199682117,22.782018300145864,23.082248699851334,24.1506066005677,,,,,,,,,,Bradley_Zn,001,2024-11-13_10h31.09.822,Foreperiod_task,2024.2.1post4,60.01579622195129,2024-11-13 10h31.20.448948 -0800,
4,0,4,[-0.06296296296296296],[0.14166666666666666],[1],[0],[0],[0.8504579998552799],,,,0,0,0,0,4,0,4,0,24.16641109995544,,,,,,,,,,,,24.150885400362313,24.16641109995544,0.0003484003245830536,24.16641109995544,24.16641109995544,24.366648100316525,24.650360300205648,24.650360300205648,24.650360300205648,24.666412900201976,25.00209920015186,0.5,normal,0.3504579998552799,[-0.06296296296296296],[0.14166666666666666],[1],[0],[0],[0.8504579998552799],25.002446100115776,25.017218899913132,25.317182299681008,26.585620400495827,,,,,,,,,,Bradley_Zn,001,2024-11-13_10h31.09.822,Foreperiod_task,2024.2.1post4,60.01579622195129,2024-11-13 10h31.20.448948 -0800,
5,0,5,[-0.06296296296296296],[0.14166666666666666],[1],[0],[0],[1.551226899959147],,,,0,0,0,0,5,0,5,0,26.601892200298607,,,,,,,,,,,,26.585934599861503,26.601892200298607,0.0003241999074816704,26.601892200298607,26.601892200298607,26.801962699741125,27.869692699983716,27.869692699983716,27.869692699983716,27.886389000341296,28.138019599951804,1.2714146431947833,surprise,0.2798122567643637,[-0.06296296296296296],[0.14166666666666666],[1],[0],[0],[1.551226899959147],28.138508000411093,28.153342300094664,28.453350700438023,29.47168350033462,,,,,,,,,,Bradley_Zn,001,2024-11-13_10h31.09.822,Foreperiod_task,2024.2.1post4,60.01579622195129,2024-11-13 10h31.20.448948 -0800,
6,0,6,[-0.06296296296296296],[0.14166666666666666],[1],[0],[0],[2.2512902999296784],,,,0,0,0,0,6,0,6,0,29.487789399921894,,,,,,,,,,,,29.471970099955797,29.487789399921894,0.00030250009149312973,29.487789399921894,29.487789399921894,29.687840499915183,31.472413700073957,31.472413700073957,31.472413700073957,31.48910850007087,31.724038500338793,2,normal,0.25129029992967844,[-0.06296296296296296],[0.14166666666666666],[1],[0],[0],[2.2512902999296784],31.72450670041144,31.739404699765146,32.03967200033367,33.40801839996129,,,,,,,,,,Bradley_Zn,001,2024-11-13_10h31.09.822,Foreperiod_task,2024.2.1post4,60.01579622195129,2024-11-13 10h31.20.448948 -0800,
7,0,7,[-0.06296296296296296],[0.14166666666666666],[1],[0],[0],[0.8165458999574184],,,,0,0,0,0,7,0,7,0,33.4241335997358,,,,,,,,,,,,33.40828590001911,33.4241335997358,0.0002798996865749359,33.4241335997358,33.4241335997358,33.62421669997275,33.9077856997028,33.9077856997028,33.9077856997028,33.92449910007417,34.225476699881256,0.5,normal,0.31654589995741844,[-0.06296296296296296],[0.14166666666666666],[1],[0],[0],[0.8165458999574184],34.22593070007861,34.24163950048387,34.54165960010141,35.443106800317764,,,,,,,,,,Bradley_Zn,001,2024-11-13_10h31.09.822,Foreperiod_task,2024.2.1post4,60.01579622195129,2024-11-13 10h31.20.448948 -0800,
8,0,8,[-0.06296296296296296],[0.14166666666666666],[1],[0],[0],[2.3011934999376535],,,,0,0,0,0,8,0,8,0,35.459149500355124,,,,,,,,,,,,35.443388800136745,35.459149500355124,0.00029879994690418243,35.459149500355124,35.459149500355124,35.659221400506794,37.44422330055386,37.44422330055386,37.44422330055386,37.46082600019872,37.745446000248194,2,normal,0.30119349993765354,[-0.06296296296296296],[0.14166666666666666],[1],[0],[0],[2.3011934999376535],37.74587529990822,37.761077700182796,38.06136860046536,39.3129972005263,,,,,,,,,,Bradley_Zn,001,2024-11-13_10h31.09.822,Foreperiod_task,2024.2.1post4,60.01579622195129,2024-11-13 10h31.20.448948 -0800,
9,0,9,[-0.06296296296296296],[0.15833333333333333],[1],[0],[0],[0.8503617001697421],,,,0,0,0,0,9,0,9,0,39.328956900164485,,,,,,,,,,,,39.313276699744165,39.328956900164485,0.00029330048710107803,39.328956900164485,39.328956900164485,39.52938359975815,39.812795700505376,39.812795700505376,39.812795700505376,39.82961620017886,40.1644665999338,0.5,normal,0.3503617001697421,[-0.06296296296296296],[0.15833333333333333],[1],[0],[0],[0.8503617001697421],40.164893300272524,40.17970249988139,40.479919800534844,41.53176419995725,,,,,,,,,,Bradley_Zn,001,2024-11-13_10h31.09.822,Foreperiod_task,2024.2.1post4,60.01579622195129,2024-11-13 10h31.20.448948 -0800,
10,0,10,[-0.06296296296296296],[0.15925925925925927],[1],[0],[0],[2.284217200241983],,,,0,0,0,0,10,0,10,0,41.54753510002047,,,,,,,,,,,,41.53207700047642,41.54753510002047,0.00032220035791397095,41.54753510002047,41.54753510002047,41.74769650027156,43.53245330043137,43.53245330043137,43.53245330043137,43.549084399826825,43.81706690043211,2,normal,0.28421720024198294,[-0.06296296296296296],[0.15925925925925927],[1],[0],[0],[2.284217200241983],43.81753380037844,43.83271600026637,44.13287790026516,45.33473709970713,,,,,,,,,,Bradley_Zn,001,2024-11-13_10h31.09.822,Foreperiod_task,2024.2.1post4,60.01579622195129,2024-11-13 10h31.20.448948 -0800,
11,0,11,[-0.06296296296296296],[0.16203703703703703],[1],[0],[0],[0.8671164996922016],,,,0,0,0,0,11,0,11,0,45.34993200004101,,,,,,,,,,,,45.334989700466394,45.34993200004101,0.00026659946888685226,45.34993200004101,45.34993200004101,45.550762499682605,45.83440130017698,45.83440130017698,45.83440130017698,45.8510627001524,46.20296320039779,0.5,normal,0.3671164996922016,[-0.06296296296296296],[0.16203703703703703],[1],[0],[0],[0.8671164996922016],46.20349910017103,46.21806939970702,46.51827879995108,47.65338500030339,,,,,,,,,,Bradley_Zn,001,2024-11-13_10h31.09.822,Foreperiod_task,2024.2.1post4,60.01579622195129,2024-11-13 10h31.20.448948 -0800,
12,0,12,[-0.06296296296296296],[0.16203703703703703],[1],[0],[0],[2.2847533002495766],,,,0,0,0,0,12,0,12,0,47.66934860032052,,,,,,,,,,,,47.65365660004318,47.66934860032052,0.0002851998433470726,47.66934860032052,47.66934860032052,47.869351900182664,49.65421110019088,49.65421110019088,49.65421110019088,49.67095370031893,49.93921970017254,2,normal,0.28475330024957657,[-0.06296296296296296],[0.16203703703703703],[1],[0],[0],[2.2847533002495766],49.93964600004256,49.95445080008358,50.25471260026097,51.206212599761784,,,,,,,,,,Bradley_Zn,001,2024-11-13_10h31.09.822,Foreperiod_task,2024.2.1post4,60.01579622195129,2024-11-13 10h31.20.448948 -0800,
13,0,13,[-0.06296296296296296],[0.16203703703703703],[1],[0],[0],[0.8332569999620318],,,,0,0,0,0,13,0,13,0,51.22212219983339,,,,,,,,,,,,51.20649920031428,51.22212219983339,0.0003002006560564041,51.22212219983339,51.22212219983339,51.42237920034677,51.705951699987054,51.705951699987054,51.705951699987054,51.722670200280845,52.04053690005094,0.5,normal,0.33325699996203184,[-0.06296296296296296],[0.16203703703703703],[1],[0],[0],[0.8332569999620318],52.04090410005301,52.05626649968326,52.35570830013603,53.60809850040823,,,,,,,,,,Bradley_Zn,001,2024-11-13_10h31.09.822,Foreperiod_task,2024.2.1post4,60.01579622195129,2024-11-13 10h31.20.448948 -0800,
14,0,14,[-0.06296296296296296],[0.16203703703703703],[1],[0],[0],[1.6843731999397278],,,,0,0,0,0,14,0,14,0,53.624243300408125,,,,,,,,,,,,53.60835270024836,53.624243300408125,0.0002725999802350998,53.624243300408125,53.624243300408125,53.82443909998983,54.97533799987286,54.97533799987286,54.97533799987286,54.99200899992138,55.29337320011109,1.358868258492484,surprise,0.32550494144724373,[-0.06296296296296296],[0.16203703703703703],[1],[0],[0],[1.6843731999397278],55.29369509965181,55.308944100514054,55.60912930034101,56.69432060047984,,,,,,,,,,Bradley_Zn,001,2024-11-13_10h31.09.822,Foreperiod_task,2024.2.1post4,60.01579622195129,2024-11-13 10h31.20.448948 -0800,
15,0,15,[-0.06296296296296296],[0.16203703703703703],[1],[0],[0],[0.8497713003307581],,,,0,0,0,0,15,0,15,0,56.710254199802876,,,,,,,,,,,,56.69460480008274,56.710254199802876,0.0003004996106028557,56.710254199802876,56.710254199802876,56.91038900054991,57.19382110051811,57.19382110051811,57.19382110051811,57.21061149984598,57.545171099714935,0.5,normal,0.3497713003307581,[-0.06296296296296296],[0.16203703703703703],[1],[0],[0],[0.8497713003307581],57.54560390021652,57.5610111001879,57.861041200347245,58.812705900520086,,,,,,,,,,Bradley_Zn,001,2024-11-13_10h31.09.822,Foreperiod_task,2024.2.1post4,60.01579622195129,2024-11-13 10h31.20.448948 -0800,
16,0,16,[-0.06296296296296296],[0.16203703703703703],[1],[0],[0],[1.6003032997250557],,,,0,0,0,0,16,0,16,0,58.82844679988921,,,,,,,,,,,,58.81295119971037,58.82844679988921,0.0002598995342850685,58.82844679988921,58.82844679988921,59.0286763003096,60.1128708999604,60.1128708999604,60.1128708999604,60.129554300569,60.413938499987125,1.2931228847365148,surprise,0.3071804149885409,[-0.06296296296296296],[0.16203703703703703],[1],[0],[0],[1.6003032997250557],60.414404899813235,60.429886800237,60.73018010053784,61.96506869979203,,,,,,,,,,Bradley_Zn,001,2024-11-13_10h31.09.822,Foreperiod_task,2024.2.1post4,60.01579622195129,2024-11-13 10h31.20.448948 -0800,
17,0,17,[-0.06296296296296296],[0.16203703703703703],[1],[0],[0],[0.9009656999260187],,,,0,0,0,0,17,0,17,0,61.98104969970882,,,,,,,,,,,,61.96536049991846,61.98104969970882,0.0003081001341342926,61.98104969970882,61.98104969970882,62.18135329987854,62.46484899986535,62.46484899986535,62.46484899986535,62.481550600379705,62.8671490997076,0.5,normal,0.4009656999260187,[-0.06296296296296296],[0.16203703703703703],[1],[0],[0],[0.9009656999260187],62.867602000012994,62.88194810040295,63.18241859972477,64.26736699976027,,,,,,,,,,Bradley_Zn,001,2024-11-13_10h31.09.822,Foreperiod_task,2024.2.1post4,60.01579622195129,2024-11-13 10h31.20.448948 -0800,
18,0,18,[-0.06296296296296296],[0.16203703703703703],[1],[0],[0],[2.284257300198078],,,,0,0,0,0,18,0,18,0,64.28311100043356,,,,,,,,,,,,64.26766979973763,64.28311100043356,0.00031880009919404984,64.28311100043356,64.28311100043356,64.483258000575,66.26804600004107,66.26804600004107,66.26804600004107,66.28479889966547,66.55270159989595,2,normal,0.28425730019807816,[-0.06296296296296296],[0.16203703703703703],[1],[0],[0],[2.284257300198078],66.55324089992791,66.56827170029283,66.86835039965808,67.80357960052788,,,,,,,,,,Bradley_Zn,001,2024-11-13_10h31.09.822,Foreperiod_task,2024.2.1post4,60.01579622195129,2024-11-13 10h31.20.448948 -0800,
19,0,19,[-0.06296296296296296],[0.16203703703703703],[1],[0],[0],[0.9171338006854057],,,,0,0,0,0,19,0,19,0,67.81941669993103,,,,,,,,,,,,67.80391149967909,67.81941669993103,0.00034479983150959015,67.81941669993103,67.81941669993103,68.01946630049497,68.30309170018882,68.30309170018882,68.30309170018882,68.31976480036974,68.72195000015199,0.5,normal,0.41713380068540573,[-0.06296296296296296],[0.16203703703703703],[1],[0],[0],[0.9171338006854057],68.72249220032245,68.73688310012221,69.03717629984021,70.05507109966129,,,,,,,,,,Bradley_Zn,001,2024-11-13_10h31.09.822,Foreperiod_task,2024.2.1post4,60.01579622195129,2024-11-13 10h31.20.448948 -0800,
20,0,20,[-0.06296296296296296],[0.16203703703703703],[1],[0],[0],[2.2683241004124284],,,,0,0,0,0,20,0,20,0,70.07119720056653,,,,,,,,,,,,70.05534160044044,70.07119720056653,0.0002899002283811569,70.07119720056653,70.07119720056653,70.27129069995135,72.0561651000753,72.0561651000753,72.0561651000753,72.07289739977568,72.32442490011454,2,normal,0.2683241004124284,[-0.06296296296296296],[0.16203703703703703],[1],[0],[0],[2.2683241004124284],72.32493219990283,72.33979680016637,72.64004210010171,73.8752904003486,,,,,,,,,,Bradley_Zn,001,2024-11-13_10h31.09.822,Foreperiod_task,2024.2.1post4,60.01579622195129,2024-11-13 10h31.20.448948 -0800,
21,0,21,[-0.06296296296296296],[0.16203703703703703],[1],[0],[0],[2.2846758998930454],,,,0,0,0,0,21,0,21,0,73.89118309970945,,,,,,,,,,,,73.87558349967003,73.89118309970945,0.0003068000078201294,73.89118309970945,73.89118309970945,74.09122090041637,75.87602009996772,75.87602009996772,75.87602009996772,75.89280700031668,76.16107730008662,2,normal,0.2846758998930454,[-0.06296296296296296],[0.16203703703703703],[1],[0],[0],[2.2846758998930454],76.16163950040936,76.17632979992777,76.47591929975897,77.37797349970788,,,,,,,,,,Bradley_Zn,001,2024-11-13_10h31.09.822,Foreperiod_task,2024.2.1post4,60.01579622195129,2024-11-13 10h31.20.448948 -0800,
22,0,22,[-0.06296296296296296],[0.16203703703703703],[1],[0],[0],[1.4844799004495144],,,,0,0,0,0,22,0,22,0,77.39396619983017,,,,,,,,,,,,77.37825240008533,77.39396619983017,0.00029700063169002533,77.39396619983017,77.39396619983017,77.59424469992518,78.56164139974862,78.56164139974862,78.56164139974862,78.57836879976094,78.86370529979467,1.1700854337564914,surprise,0.31439446669302296,[-0.06296296296296296],[0.16203703703703703],[1],[0],[0],[1.4844799004495144],78.86423910036683,78.87865830026567,79.17899459972978,80.29711209982634,,,,,,,,,,Bradley_Zn,001,2024-11-13_10h31.09.822,Foreperiod_task,2024.2.1post4,60.01579622195129,2024-11-13 10h31.20.448948 -0800,
23,0,23,[-0.062037037037037036],[0.16296296296296298],[1],[0],[0],[0.8170584999024868],,,,0,0,0,0,23,0,23,0,80.31310820020735,,,,,,,,,,,,80.29738910030574,80.31310820020735,0.00029239989817142487,80.31310820020735,80.31310820020735,80.51319990027696,80.79692120011896,80.79692120011896,80.79692120011896,80.81345560029149,81.11516019981354,0.5,normal,0.3170584999024868,[-0.062037037037037036],[0.16296296296296298],[1],[0],[0],[0.8170584999024868],81.11573300044984,81.13032240048051,81.43070400040597,82.64807759970427,,,,,,,,,,Bradley_Zn,001,2024-11-13_10h31.09.822,Foreperiod_task,2024.2.1post4,60.01579622195129,2024-11-13 10h31.20.448948 -0800,
24,0,24,[-0.062037037037037036],[0.16296296296296298],[1],[0],[0],[2.319967200048268],,,,0,0,0,0,24,0,24,0,82.66460719984025,,,,,,,,,,,,82.64817790035158,82.66460719984025,0.00010460056364536285,82.66460719984025,82.66460719984025,82.86527189984918,84.65011390019208,84.65011390019208,84.65011390019208,84.66681160032749,84.96883360017091,2,normal,0.31996720004826784,[-0.062037037037037036],[0.16296296296296298],[1],[0],[0],[2.319967200048268],84.96940440032631,84.9833399001509,85.28407500032336,86.30229139979929,,,,,,,,,,Bradley_Zn,001,2024-11-13_10h31.09.822,Foreperiod_task,2024.2.1post4,60.01579622195129,2024-11-13 10h31.20.448948 -0800,
25,0,25,[-0.06018518518518518],[0.16111111111111112],[1],[0],[0],[2.301380700431764],,,,0,0,0,0,25,0,25,0,86.31804190017283,,,,,,,,,,,,86.30255240015686,86.31804190017283,0.00027589965611696243,86.31804190017283,86.31804190017283,86.51821690052748,88.30301299970597,88.30301299970597,88.30301299970597,88.31980410031974,88.60475509986281,2,normal,0.3013807004317641,[-0.06018518518518518],[0.16111111111111112],[1],[0],[0],[2.301380700431764],88.60520870052278,88.61998509988189,88.92019960004836,90.00514580029994,,,,,,,,,,Bradley_Zn,001,2024-11-13_10h31.09.822,Foreperiod_task,2024.2.1post4,60.01579622195129,2024-11-13 10h31.20.448948 -0800,
26,0,26,[-0.06018518518518518],[0.16111111111111112],[1],[0],[0],[2.351581900380552],,,,0,0,0,0,26,0,26,0,90.02105080056936,,,,,,,,,,,,90.00543760042638,90.02105080056936,0.0003086002543568611,90.02105080056936,90.02105080056936,90.22126379981637,92.00605580024421,92.00605580024421,92.00605580024421,92.02275170013309,92.35778350010514,2,normal,0.3515819003805518,[-0.06018518518518518],[0.16111111111111112],[1],[0],[0],[2.351581900380552],92.35816640034318,92.37314589973539,92.67341910023242,93.5746157001704,,,,,,,,,,Bradley_Zn,001,2024-11-13_10h31.09.822,Foreperiod_task,2024.2.1post4,60.01579622195129,2024-11-13 10h31.20.448948 -0800,
27,0,27,[-0.06018518518518518],[0.16111111111111112],[1],[0],[0],[2.3184349006041884],,,,0,0,0,0,27,0,27,0,93.59077369980514,,,,,,,,,,,,93.57489269971848,93.59077369980514,0.0002935994416475296,93.59077369980514,93.59077369980514,93.79084810055792,95.57577690016478,95.57577690016478,95.57577690016478,95.59250469971448,95.89413660019636,2,normal,0.31843490060418844,[-0.06018518518518518],[0.16111111111111112],[1],[0],[0],[2.3184349006041884],95.89457529969513,95.90946540050209,96.2097064005211,97.29469610005617,,,,,,,,,,Bradley_Zn,001,2024-11-13_10h31.09.822,Foreperiod_task,2024.2.1post4,60.01579622195129,2024-11-13 10h31.20.448948 -0800,
28,0,28,[-0.06018518518518518],[0.16111111111111112],[1],[0],[0],[0.9336563991382718],,,,0,0,0,0,28,0,28,0,97.31073520053178,,,,,,,,,,,,97.29495500028133,97.31073520053178,0.0002757003530859947,97.31073520053178,97.31073520053178,97.51007020007819,97.79405490029603,97.79405490029603,97.79405490029603,97.81073660030961,98.2293576002121,0.5,normal,0.4336563991382718,[-0.06018518518518518],[0.16111111111111112],[1],[0],[0],[0.9336563991382718],98.22982169967145,98.24437300022691,98.5451851002872,99.44603610038757,,,,,,,,,,Bradley_Zn,001,2024-11-13_10h31.09.822,Foreperiod_task,2024.2.1post4,60.01579622195129,2024-11-13 10h31.20.448948 -0800,
29,0,29,[-0.06018518518518518],[0.16111111111111112],[1],[0],[0],[0.8334529008716345],,,,0,0,0,0,29,0,29,0,99.46235630009323,,,,,,,,,,,,99.4463755004108,99.46235630009323,0.0002827998250722885,99.46235630009323,99.46235630009323,99.66265380010009,99.94624510034919,99.94624510034919,99.94624510034919,99.96286789979786,100.28064970020205,0.5,normal,0.3334529008716345,[-0.06018518518518518],[0.16111111111111112],[1],[0],[0],[0.8334529008716345],100.28109239973128,100.29633279982954,100.59672460053116,101.69843180011958,,,,,,,,,,Bradley_Zn,001,2024-11-13_10h31.09.822,Foreperiod_task,2024.2.1post4,60.01579622195129,2024-11-13 10h31.20.448948 -0800,
30,0,30,[-0.06018518518518518],[0.16111111111111112],[1],[0],[0],[2.3175820000469685],,,,0,0,0,0,30,0,30,0,101.71422019973397,,,,,,,,,,,,101.69870259985328,101.71422019973397,0.0002859998494386673,101.71422019973397,101.71422019973397,101.91427250020206,103.6991681996733,103.6991681996733,103.6991681996733,103.7158169997856,104.01704009994864,2,normal,0.31758200004696846,[-0.06018518518518518],[0.16111111111111112],[1],[0],[0],[2.3175820000469685],104.01746799983084,104.0328475004062,104.33290380053222,105.46791100036353,,,,,,,,,,Bradley_Zn,001,2024-11-13_10h31.09.822,Foreperiod_task,2024.2.1post4,60.01579622195129,2024-11-13 10h31.20.448948 -0800,
31,0,31,[-0.06018518518518518],[0.16111111111111112],[1],[0],[0],[2.2848298996686935],,,,0,0,0,0,31,0,31,0,105.48390359990299,,,,,,,,,,,,105.46818010043353,105.48390359990299,0.0002896999940276146,105.48390359990299,105.48390359990299,105.68415199965239,107.46898810006678,107.46898810006678,107.46898810006678,107.48564959969372,107.75391130056232,2,normal,0.28482989966869354,[-0.06018518518518518],[0.16111111111111112],[1],[0],[0],[2.2848298996686935],107.75440459977835,107.76895350031555,108.06949920020998,109.0540661001578,,,,,,,,,,Bradley_Zn,001,2024-11-13_10h31.09.822,Foreperiod_task,2024.2.1post4,60.01579622195129,2024-11-13 10h31.20.448948 -0800,
32,0,32,[-0.06018518518518518],[0.16111111111111112],[1],[0],[0],[2.335330399684608],,,,0,0,0,0,32,0,32,0,109.07039109990001,,,,,,,,,,,,109.05432690028101,109.07039109990001,0.0002753008157014847,109.07039109990001,109.07039109990001,109.27044100034982,111.05536830052733,111.05536830052733,111.05536830052733,111.07205550000072,111.39047900028527,2,normal,0.335330399684608,[-0.06018518518518518],[0.16111111111111112],[1],[0],[0],[2.335330399684608],111.3908962002024,111.40562460012734,111.70568140037358,112.92419609986246,,,,,,,,,,Bradley_Zn,001,2024-11-13_10h31.09.822,Foreperiod_task,2024.2.1post4,60.01579622195129,2024-11-13 10h31.20.448948 -0800,
33,0,33,[-0.06018518518518518],[0.16111111111111112],[1],[0],[0],[2.4678590996190906],,,,0,0,0,0,33,0,33,0,112.94013610016555,,,,,,,,,,,,112.92449359968305,112.94013610016555,0.0003147004172205925,112.94013610016555,112.94013610016555,113.14036739990115,114.92518720030785,114.92518720030785,114.92518720030785,114.94205330032855,115.39302130043507,2,normal,0.46785909961909056,[-0.06018518518518518],[0.16111111111111112],[1],[0],[0],[2.4678590996190906],115.39381329994649,115.40901730023324,115.70978139992803,116.97776249982417,,,,,,,,,,Bradley_Zn,001,2024-11-13_10h31.09.822,Foreperiod_task,2024.2.1post4,60.01579622195129,2024-11-13 10h31.20.448948 -0800,
34,0,34,[-0.06018518518518518],[0.16111111111111112],[1],[0],[0],[1.1172788003459573],,,,0,0,0,0,34,0,34,0,116.9935301002115,,,,,,,,,,,,116.97803230024874,116.9935301002115,0.00028510019183158875,116.9935301002115,116.9935301002115,117.19392069987953,117.4773781998083,117.4773781998083,117.4773781998083,117.49405239988118,118.09622670058161,0.5,normal,0.6172788003459573,[-0.06018518518518518],[0.16111111111111112],[1],[0],[0],[1.1172788003459573],118.09677259996533,118.11132210027426,118.4114449005574,119.71311390027404,,,,,,,,,,Bradley_Zn,001,2024-11-13_10h31.09.822,Foreperiod_task,2024.2.1post4,60.01579622195129,2024-11-13 10h31.20.448948 -0800,
35,0,35,[-0.06018518518518518],[0.16111111111111112],[1],[0],[0],[0.9501876002177596],,,,0,0,0,0,35,0,35,0,119.72926929965615,,,,,,,,,,,,119.71338250022382,119.72926929965615,0.0002834005281329155,119.72926929965615,119.72926929965615,119.92967800050974,120.21311820019037,120.21311820019037,120.21311820019037,120.22971799969673,120.66439499985427,0.5,normal,0.4501876002177596,[-0.06018518518518518],[0.16111111111111112],[1],[0],[0],[0.9501876002177596],120.66484019998461,120.68017320055515,120.9801169000566,122.03194249980152,,,,,,,,,,Bradley_Zn,001,2024-11-13_10h31.09.822,Foreperiod_task,2024.2.1post4,60.01579622195129,2024-11-13 10h31.20.448948 -0800,
36,0,36,[-0.06018518518518518],[0.16111111111111112],[1],[0],[0],[0.8838013997301459],,,,0,0,0,0,36,0,36,0,122.04793170001358,,,,,,,,,,,,122.03223130013794,122.04793170001358,0.0003054998815059662,122.04793170001358,122.04793170001358,122.24793140031397,122.53152929991484,122.53152929991484,122.53152929991484,122.54827340040356,122.91688119992614,0.5,normal,0.38380139973014593,[-0.06018518518518518],[0.16111111111111112],[1],[0],[0],[0.8838013997301459],122.91733090020716,122.93186159990728,123.2322409003973,124.3169344002381,,,,,,,,,,Bradley_Zn,001,2024-11-13_10h31.09.822,Foreperiod_task,2024.2.1post4,60.01579622195129,2024-11-13 10h31.20.448948 -0800,
37,0,37,[-0.06018518518518518],[0.16111111111111112],[1],[0],[0],[2.3349174996837974],,,,0,0,0,0,37,0,37,0,124.33297280035913,,,,,,,,,,,,124.31725590024143,124.33297280035913,0.00034189969301223755,124.33297280035913,124.33297280035913,124.53313480038196,126.31826770026237,126.31826770026237,126.31826770026237,126.33470099978149,126.65286929998547,2,normal,0.33491749968379736,[-0.06018518518518518],[0.16111111111111112],[1],[0],[0],[2.3349174996837974],126.65330460015684,126.6681342003867,126.96868250053376,128.15378220006824,,,,,,,,,,Bradley_Zn,001,2024-11-13_10h31.09.822,Foreperiod_task,2024.2.1post4,60.01579622195129,2024-11-13 10h31.20.448948 -0800,
38,0,38,[-0.06018518518518518],[0.16111111111111112],[1],[0],[0],[2.3182463999837637],,,,0,0,0,0,38,0,38,0,128.16967099998146,,,,,,,,,,,,128.1540632005781,128.16967099998146,0.00030040089040994644,128.16967099998146,128.16967099998146,128.36970799975097,130.15430170018226,130.15430170018226,130.15430170018226,130.17143310047686,130.4730920996517,2,normal,0.3182463999837637,[-0.06018518518518518],[0.16111111111111112],[1],[0],[0],[2.3182463999837637],130.47352369967848,130.48818060010672,130.788477900438,131.70692040026188,,,,,,,,,,Bradley_Zn,001,2024-11-13_10h31.09.822,Foreperiod_task,2024.2.1post4,60.01579622195129,2024-11-13 10h31.20.448948 -0800,
39,0,39,[-0.06018518518518518],[0.16111111111111112],[1],[0],[0],[1.0002947002649307],,,,0,0,0,0,39,0,39,0,131.72272379975766,,,,,,,,,,,,131.707317000255,131.72272379975766,0.00040350016206502914,131.72272379975766,131.72272379975766,131.92275550030172,132.2064458001405,132.2064458001405,132.2064458001405,132.2229128004983,132.70860720053315,0.5,normal,0.5002947002649307,[-0.06018518518518518],[0.16111111111111112],[1],[0],[0],[1.0002947002649307],132.70922769978642,132.7234259005636,133.02358970046043,133.90839840006083,,,,,,,,,,Bradley_Zn,001,2024-11-13_10h31.09.822,Foreperiod_task,2024.2.1post4,60.01579622195129,2024-11-13 10h31.20.448948 -0800,
40,0,40,[-0.05925925925925926],[0.16111111111111112],[1],[0],[0],[2.300350899808109],,,,0,0,0,0,40,0,40,0,133.92447409965098,,,,,,,,,,,,133.9086915999651,133.92447409965098,0.0003110002726316452,133.92447409965098,133.92447409965098,134.1245841998607,135.90924939978868,135.90924939978868,135.90924939978868,135.92595230042934,136.20951069984585,2,normal,0.3003508998081088,[-0.05925925925925926],[0.16111111111111112],[1],[0],[0],[2.300350899808109],136.20969619974494,136.22559570055455,136.52646560035646,137.54503879975528,,,,,,,,,,Bradley_Zn,001,2024-11-13_10h31.09.822,Foreperiod_task,2024.2.1post4,60.01579622195129,2024-11-13 10h31.20.448948 -0800,
41,0,41,[-0.05925925925925926],[0.16111111111111112],[1],[0],[0],[2.351279799826443],,,,0,0,0,0,41,0,41,0,137.56068820040673,,,,,,,,,,,,137.5453610997647,137.56068820040673,0.000421999953687191,137.56068820040673,137.56068820040673,137.76085230056196,139.54573640041053,139.54573640041053,139.54573640041053,139.5623805001378,139.8975202003494,2,normal,0.3512797998264432,[-0.05925925925925926],[0.16111111111111112],[1],[0],[0],[2.351279799826443],139.89795089978725,139.91262149997056,140.21284610033035,141.2810695003718,,,,,,,,,,Bradley_Zn,001,2024-11-13_10h31.09.822,Foreperiod_task,2024.2.1post4,60.01579622195129,2024-11-13 10h31.20.448948 -0800,
42,0,42,[-0.05925925925925926],[0.16111111111111112],[1],[0],[0],[2.3184278002008796],,,,0,0,0,0,42,0,42,0,141.2970772003755,,,,,,,,,,,,141.28129850048572,141.2970772003755,0.00023880042135715485,141.2970772003755,141.2970772003755,141.4972649998963,143.2820385005325,143.2820385005325,143.2820385005325,143.29889770038426,143.600491899997,2,normal,0.3184278002008796,[-0.05925925925925926],[0.16111111111111112],[1],[0],[0],[2.3184278002008796],143.60088140051812,143.61497769970447,143.91596989985555,145.13430240005255,,,,,,,,,,Bradley_Zn,001,2024-11-13_10h31.09.822,Foreperiod_task,2024.2.1post4,60.01579622195129,2024-11-13 10h31.20.448948 -0800,
43,0,43,[-0.05925925925925926],[0.16111111111111112],[1],[0],[0],[0.8673287006095052],,,,0,0,0,0,43,0,43,0,145.15031199995428,,,,,,,,,,,,145.134575500153,145.15031199995428,0.0002891998738050461,145.15031199995428,145.15031199995428,145.35045870020986,145.63353599980474,145.63353599980474,145.63353599980474,145.65046569984406,146.0026927003637,0.5,normal,0.3673287006095052,[-0.05925925925925926],[0.16111111111111112],[1],[0],[0],[0.8673287006095052],146.00311500020325,146.01789920032024,146.31797230057418,147.3688192004338,,,,,,,,,,Bradley_Zn,001,2024-11-13_10h31.09.822,Foreperiod_task,2024.2.1post4,60.01579622195129,2024-11-13 10h31.20.448948 -0800,
44,0,44,[-0.05925925925925926],[0.16111111111111112],[1],[0],[0],[0.8675464997068048],,,,0,0,0,0,44,0,44,0,147.38516029994935,,,,,,,,,,,,147.36893020011485,147.38516029994935,0.00011430028825998306,147.38516029994935,147.38516029994935,147.58517930004746,147.868857299909,147.868857299909,147.868857299909,147.8854200001806,148.236964199692,0.5,normal,0.36754649970680475,[-0.05925925925925926],[0.16111111111111112],[1],[0],[0],[0.8675464997068048],148.23726610001177,148.2524202996865,148.5524083999917,149.88714990019798,,,,,,,,,,Bradley_Zn,001,2024-11-13_10h31.09.822,Foreperiod_task,2024.2.1post4,60.01579622195129,2024-11-13 10h31.20.448948 -0800,
45,0,45,[-0.05925925925925926],[0.16111111111111112],[1],[0],[0],[0.8344173999503255],,,,0,0,0,0,45,0,45,0,149.90384810045362,,,,,,,,,,,,149.88727150019258,149.90384810045362,0.00012509990483522415,149.90384810045362,149.90384810045362,150.10429670009762,150.38748000003397,150.38748000003397,150.38748000003397,150.40401879977435,150.7220515003428,0.5,normal,0.3344173999503255,[-0.05925925925925926],[0.16111111111111112],[1],[0],[0],[0.8344173999503255],150.72229669988155,150.73807720001787,151.03820810001343,152.02353920042515,,,,,,,,,,Bradley_Zn,001,2024-11-13_10h31.09.822,Foreperiod_task,2024.2.1post4,60.01579622195129,2024-11-13 10h31.20.448948 -0800,
46,0,46,[-0.05925925925925926],[0.16111111111111112],[1],[0],[0],[2.301464800722897],,,,0,0,0,0,46,0,46,0,152.03961290046573,,,,,,,,,,,,152.0238148001954,152.03961290046573,0.0002924008294939995,152.03961290046573,152.03961290046573,152.23955939989537,154.02439410053194,154.02439410053194,154.02439410053194,154.04102389980108,154.3262566998601,2,normal,0.30146480072289705,[-0.05925925925925926],[0.16111111111111112],[1],[0],[0],[2.301464800722897],154.32672089990228,154.34147850051522,154.6413980005309,155.56018390040845,,,,,,,,,,Bradley_Zn,001,2024-11-13_10h31.09.822,Foreperiod_task,2024.2.1post4,60.01579622195129,2024-11-13 10h31.20.448948 -0800,
47,0,47,[-0.05925925925925926],[0.16111111111111112],[1],[0],[0],[2.2667266000062227],,,,0,0,0,0,47,0,47,0,155.57595739979297,,,,,,,,,,,,155.56048069987446,155.57595739979297,0.00030899979174137115,155.57595739979297,155.57595739979297,155.77596949972212,157.56021559983492,157.56021559983492,157.56021559983492,157.57695540040731,157.82768020033836,2,normal,0.2667266000062227,[-0.05925925925925926],[0.16111111111111112],[1],[0],[0],[2.2667266000062227],157.82787450030446,157.84374770056456,158.1441342998296,159.4961409997195,,,,,,,,,,Bradley_Zn,001,2024-11-13_10h31.09.822,Foreperiod_task,2024.2.1post4,60.01579622195129,2024-11-13 10h31.20.448948 -0800,
48,0,48,[-0.05925925925925926],[0.16111111111111112],[1],[0],[0],[0.8336466001346707],,,,0,0,0,0,48,0,48,0,159.51235369965434,,,,,,,,,,,,159.49642950017005,159.51235369965434,0.00030819978564977646,159.51235369965434,159.51235369965434,159.71247460041195,159.99602410010993,159.99602410010993,159.99602410010993,160.0126443998888,160.3307450003922,0.5,normal,0.33364660013467073,[-0.05925925925925926],[0.16111111111111112],[1],[0],[0],[0.8336466001346707],160.3310852004215,160.34621510002762,160.6456975005567,161.53111610002816,,,,,,,,,,Bradley_Zn,001,2024-11-13_10h31.09.822,Foreperiod_task,2024.2.1post4,60.01579622195129,2024-11-13 10h31.20.448948 -0800,
49,0,49,[-0.05925925925925926],[0.16111111111111112],[1],[0],[0],[2.4186940994113684],,,,0,0,0,0,49,0,49,0,161.54728190042078,,,,,,,,,,,,161.53136679995805,161.54728190042078,0.0002647005021572113,161.54728190042078,161.54728190042078,161.74743750039488,163.53214440029114,163.53214440029114,163.53214440029114,163.5488707004115,163.9508948000148,2,normal,0.41869409941136837,[-0.05925925925925926],[0.16111111111111112],[1],[0],[0],[2.4186940994113684],163.95134649984539,163.96598330046982,164.26624280028045,165.16767069976777,,,,,,,,,,Bradley_Zn,001,2024-11-13_10h31.09.822,Foreperiod_task,2024.2.1post4,60.01579622195129,2024-11-13 10h31.20.448948 -0800,
50,0,50,[-0.05925925925925926],[0.16111111111111112],[1],[0],[0],[0.8176172999665141],,,,0,0,0,0,50,0,50,0,165.18374640028924,,,,,,,,,,,,165.1679444005713,165.18374640028924,0.0002902001142501831,165.18374640028924,165.18374640028924,165.3836081000045,165.6668659998104,165.6668659998104,165.6668659998104,165.68398969992995,165.98646290041506,0.5,normal,0.3176172999665141,[-0.05925925925925926],[0.16111111111111112],[1],[0],[0],[0.8176172999665141],165.98683690000325,166.00089390017092,166.3014497999102,167.18517610058188,,,,,,,,,,Bradley_Zn,001,2024-11-13_10h31.09.822,Foreperiod_task,2024.2.1post4,60.01579622195129,2024-11-13 10h31.20.448948 -0800,
51,0,51,[-0.05925925925925926],[0.16111111111111112],[1],[0],[0],[2.319067400880158],,,,0,0,0,0,51,0,51,0,167.20154829975218,,,,,,,,,,,,167.18528680037707,167.20154829975218,0.00011490005999803543,167.20154829975218,167.20154829975218,167.4018794996664,169.1867332002148,169.1867332002148,169.1867332002148,169.20307550020516,169.50505390018225,2,normal,0.31906740088015795,[-0.05925925925925926],[0.16111111111111112],[1],[0],[0],[2.319067400880158],169.5054754000157,169.52087859995663,169.8207980999723,171.1551417997107,,,,,,,,,,Bradley_Zn,001,2024-11-13_10h31.09.822,Foreperiod_task,2024.2.1post4,60.01579622195129,2024-11-13 10h31.20.448948 -0800,
52,0,52,[-0.05925925925925926],[0.16111111111111112],[1],[0],[0],[0.7848918000236154],,,,0,0,0,0,52,0,52,0,171.1715569999069,,,,,,,,,,,,171.15524050034583,171.1715569999069,0.0001034000888466835,171.1715569999069,171.1715569999069,171.37199890054762,171.65591000020504,171.65591000020504,171.65591000020504,171.67252410016954,171.9407414002344,0.5,normal,0.28489180002361536,[-0.05925925925925926],[0.16111111111111112],[1],[0],[0],[0.7848918000236154],171.94117700029165,171.95593480020761,172.2557135000825,173.4747222000733,,,,,,,,,,Bradley_Zn,001,2024-11-13_10h31.09.822,Foreperiod_task,2024.2.1post4,60.01579622195129,2024-11-13 10h31.20.448948 -0800,
53,0,53,[-0.05925925925925926],[0.16111111111111112],[1],[0],[0],[2.284332299605012],,,,0,0,0,0,53,0,53,0,173.49071090016514,,,,,,,,,,,,173.47497390024364,173.49071090016514,0.0002629002556204796,173.49071090016514,173.49071090016514,173.6906444001943,175.47552980016917,175.47552980016917,175.47552980016917,175.492235600017,175.75997589994222,2,normal,0.28433229960501194,[-0.05925925925925926],[0.16111111111111112],[1],[0],[0],[2.284332299605012],175.76036630012095,175.7755573000759,176.0758205000311,177.29384119994938,,,,,,,,,,Bradley_Zn,001,2024-11-13_10h31.09.822,Foreperiod_task,2024.2.1post4,60.01579622195129,2024-11-13 10h31.20.448948 -0800,
54,0,54,[-0.05925925925925926],[0.175],[1],[0],[0],[2.301430799998343],,,,0,0,0,0,54,0,54,0,177.3099480997771,,,,,,,,,,,,177.29394420050085,177.3099480997771,0.00010669976472854614,177.3099480997771,177.3099480997771,177.5100656999275,179.29520709998906,179.29520709998906,179.29520709998906,179.31196440011263,179.5957156000659,2,normal,0.301430799998343,[-0.05925925925925926],[0.175],[1],[0],[0],[2.301430799998343],179.5958866002038,179.61179469991475,179.91244580037892,181.0305981002748,,,,,,,,,,Bradley_Zn,001,2024-11-13_10h31.09.822,Foreperiod_task,2024.2.1post4,60.01579622195129,2024-11-13 10h31.20.448948 -0800,
55,0,55,[-0.05925925925925926],[0.175],[1],[0],[0],[2.418194600380957],,,,0,0,0,0,55,0,55,0,181.04663540050387,,,,,,,,,,,,181.0308384001255,181.04663540050387,0.0002557998523116112,181.04663540050387,181.04663540050387,181.2464773999527,183.0316452998668,183.0316452998668,183.0316452998668,183.04857680015266,183.44948020018637,2,normal,0.4181946003809571,[-0.05925925925925926],[0.175],[1],[0],[0],[2.418194600380957],183.44966359995306,183.46551259979606,183.76521120034158,185.01725490018725,,,,,,,,,,Bradley_Zn,001,2024-11-13_10h31.09.822,Foreperiod_task,2024.2.1post4,60.01579622195129,2024-11-13 10h31.20.448948 -0800,
56,0,56,[-0.05925925925925926],[0.175],[1],[0],[0],[0.8673857999965549],,,,0,0,0,0,56,0,56,0,185.03345960006118,,,,,,,,,,,,185.01751700043678,185.03345960006118,0.0002768002450466156,185.03345960006118,185.03345960006118,185.23379420023412,185.5170157002285,185.5170157002285,185.5170157002285,185.5339887002483,185.88555049989372,0.5,normal,0.36738579999655485,[-0.05925925925925926],[0.175],[1],[0],[0],[0.8673857999965549],185.88592889998108,185.90076769981533,186.20091290026903,187.5020968997851,,,,,,,,,,Bradley_Zn,001,2024-11-13_10h31.09.822,Foreperiod_task,2024.2.1post4,60.01579622195129,2024-11-13 10h31.20.448948 -0800,
57,0,57,[-0.05925925925925926],[0.175],[1],[0],[0],[2.285546099767089],,,,0,0,0,0,57,0,57,0,187.51853480003774,,,,,,,,,,,,187.50224169995636,187.51853480003774,0.00015330035239458084,187.51853480003774,187.51853480003774,187.71872270014137,189.5037328004837,189.5037328004837,189.5037328004837,189.52046660054475,189.7886463003233,2,normal,0.2855460997670889,[-0.05925925925925926],[0.175],[1],[0],[0],[2.285546099767089],189.78900589980185,189.80382160004228,190.10407030023634,191.3731228997931,,,,,,,,,,Bradley_Zn,001,2024-11-13_10h31.09.822,Foreperiod_task,2024.2.1post4,60.01579622195129,2024-11-13 10h31.20.448948 -0800,
58,0,58,[-0.05925925925925926],[0.175],[1],[0],[0],[0.8000120995566249],,,,0,0,0,0,58,0,58,0,191.3886313997209,,,,,,,,,,,,191.37344199977815,191.3886313997209,0.00033040065318346024,191.3886313997209,191.3886313997209,191.5885971998796,191.8725554002449,191.8725554002449,191.8725554002449,191.88880589976907,192.17423619981855,0.5,normal,0.3000120995566249,[-0.05925925925925926],[0.175],[1],[0],[0],[0.8000120995566249],192.17468990013003,192.18956539966166,192.48973430041224,193.6911735003814,,,,,,,,,,Bradley_Zn,001,2024-11-13_10h31.09.822,Foreperiod_task,2024.2.1post4,60.01579622195129,2024-11-13 10h31.20.448948 -0800,
59,0,59,[-0.05925925925925926],[0.175],[1],[0],[0],[0.8162980992347002],,,,0,0,0,0,59,0,59,0,193.70751590002328,,,,,,,,,,,,193.6913866996765,193.70751590002328,0.00022419914603233337,193.70751590002328,193.70751590002328,193.90755380038172,194.1911610001698,194.1911610001698,194.1911610001698,194.20803780015558,194.50813749991357,0.5,normal,0.3162980992347002,[-0.05925925925925926],[0.175],[1],[0],[0],[0.8162980992347002],194.50831690058112,194.52433650009334,194.82450779993087,196.12716239970177,,,,,,,,,,Bradley_Zn,001,2024-11-13_10h31.09.822,Foreperiod_task,2024.2.1post4,60.01579622195129,2024-11-13 10h31.20.448948 -0800,
60,0,60,[-0.05925925925925926],[0.175],[1],[0],[0],[0.8499908996745944],,,,0,0,0,0,60,0,60,0,196.1426407005638,,,,,,,,,,,,196.1274445997551,196.1426407005638,0.0003019999712705612,196.1426407005638,196.1426407005638,196.342993600294,196.6265821000561,196.6265821000561,196.6265821000561,196.64332760032266,196.97820749972016,0.5,normal,0.3499908996745944,[-0.05925925925925926],[0.175],[1],[0],[0],[0.8499908996745944],196.97859410010278,196.99342880025506,197.2938119005412,198.59604800026864,,,,,,,,,,Bradley_Zn,001,2024-11-13_10h31.09.822,Foreperiod_task,2024.2.1post4,60.01579622195129,2024-11-13 10h31.20.448948 -0800,
61,0,61,[-0.05925925925925926],[0.175],[1],[0],[0],[2.4838292002677917],,,,0,0,0,0,61,0,61,0,198.61150220036507,,,,,,,,,,,,198.59642960038036,198.61150220036507,0.0003973003476858139,198.61150220036507,198.61150220036507,198.81175590027124,200.59669120050967,200.59669120050967,200.59669120050967,200.61308000050485,201.08090099971741,2,normal,0.48382920026779175,[-0.05925925925925926],[0.175],[1],[0],[0],[2.4838292002677917],201.0813295999542,201.0968137998134,201.39703910052776,202.71544140018523,,,,,,,,,,Bradley_Zn,001,2024-11-13_10h31.09.822,Foreperiod_task,2024.2.1post4,60.01579622195129,2024-11-13 10h31.20.448948 -0800,
62,0,62,[-0.05925925925925926],[0.175],[1],[0],[0],[2.2679567001760006],,,,0,0,0,0,62,0,62,0,202.73147240001708,,,,,,,,,,,,202.7156594004482,202.73147240001708,0.0002322997897863388,202.73147240001708,202.73147240001708,202.93171850033104,204.71658189967275,204.71658189967275,204.71658189967275,204.73342190030962,204.98421800043434,2,normal,0.2679567001760006,[-0.05925925925925926],[0.175],[1],[0],[0],[2.2679567001760006],204.98452270030975,205.0001194998622,205.30085960030556,206.61873350013047,,,,,,,,,,Bradley_Zn,001,2024-11-13_10h31.09.822,Foreperiod_task,2024.2.1post4,60.01579622195129,2024-11-13 10h31.20.448948 -0800,
63,0,63,[-0.05925925925925926],[0.175],[1],[0],[0],[0.7673894995823503],,,,0,0,0,0,63,0,63,0,206.63483509980142,,,,,,,,,,,,206.61896460037678,206.63483509980142,0.00024609919637441635,206.63483509980142,206.63483509980142,206.83494430035353,207.11859809979796,207.11859809979796,207.11859809979796,207.13523649983108,207.38710969965905,0.5,normal,0.26738949958235025,[-0.05925925925925926],[0.175],[1],[0],[0],[0.7673894995823503],207.38748870044947,207.40236070007086,207.70178330037743,208.83759860042483,,,,,,,,,,Bradley_Zn,001,2024-11-13_10h31.09.822,Foreperiod_task,2024.2.1post4,60.01579622195129,2024-11-13 10h31.20.448948 -0800,
64,0,64,[-0.05925925925925926],[0.175],[1],[0],[0],[1.6507510002702475],,,,0,0,0,0,64,0,64,0,208.8533576996997,,,,,,,,,,,,208.8378977002576,208.8533576996997,0.0003119995817542076,208.8533576996997,208.8533576996997,209.0535174002871,210.17109979968518,210.17109979968518,210.17109979968518,210.18762600049376,210.4894316000864,1.3261604070101507,surprise,0.32459059326009676,[-0.05925925925925926],[0.175],[1],[0],[0],[1.6507510002702475],210.48979280050844,210.5047324001789,210.80496290046722,211.9230930004269,,,,,,,,,,Bradley_Zn,001,2024-11-13_10h31.09.822,Foreperiod_task,2024.2.1post4,60.01579622195129,2024-11-13 10h31.20.448948 -0800,
65,0,65,[-0.05925925925925926],[0.175],[1],[0],[0],[2.735411999747157],,,,0,0,0,0,65,0,65,0,211.93919220007956,,,,,,,,,,,,211.9233768004924,211.93919220007956,0.0003011999651789665,211.93919220007956,211.93919220007956,212.13932150043547,213.92429440002888,213.92429440002888,213.92429440002888,213.94060610048473,214.6594989001751,2,normal,0.7354119997471571,[-0.05925925925925926],[0.175],[1],[0],[0],[2.735411999747157],214.65983590018004,214.67482579965144,214.97513999976218,216.110137199983,,,,,,,,,,Bradley_Zn,001,2024-11-13_10h31.09.822,Foreperiod_task,2024.2.1post4,60.01579622195129,2024-11-13 10h31.20.448948 -0800,
66,0,66,[-0.05925925925925926],[0.175],[1],[0],[0],[2.384774100035429],,,,0,0,0,0,66,0,66,0,216.12605859991163,,,,,,,,,,,,216.1104129003361,216.12605859991163,0.0002946993336081505,216.12605859991163,216.12605859991163,216.3261505998671,218.1110557001084,218.1110557001084,218.1110557001084,218.12773559987545,218.4958726996556,2,normal,0.384774100035429,[-0.05925925925925926],[0.175],[1],[0],[0],[2.384774100035429],218.49623860046268,218.51137039996684,218.81156780011952,219.94643849972636,,,,,,,,,,Bradley_Zn,001,2024-11-13_10h31.09.822,Foreperiod_task,2024.2.1post4,60.01579622195129,2024-11-13 10h31.20.448948 -0800,
67,0,67,[-0.05925925925925926],[0.175],[1],[0],[0],[1.7841057004407048],,,,0,0,0,0,67,0,67,0,219.96248070057482,,,,,,,,,,,,219.94667199999094,219.96248070057482,0.00025140028446912766,219.96248070057482,219.96248070057482,220.1624996000901,221.4138406002894,221.4138406002894,221.4138406002894,221.4304446997121,221.7313529998064,1.4677449555307422,surprise,0.3163607449099626,[-0.05925925925925926],[0.175],[1],[0],[0],[1.7841057004407048],221.73161939997226,221.74757449980825,222.04796430002898,223.09915530029684,,,,,,,,,,Bradley_Zn,001,2024-11-13_10h31.09.822,Foreperiod_task,2024.2.1post4,60.01579622195129,2024-11-13 10h31.20.448948 -0800,
68,0,68,[-0.05925925925925926],[0.175],[1],[0],[0],[2.30080739967525],,,,0,0,0,0,68,0,68,0,223.1152298003435,,,,,,,,,,,,223.09945360012352,223.1152298003435,0.00031610019505023956,223.1152298003435,223.1152298003435,223.31557950004935,225.1002152003348,225.1002152003348,225.1002152003348,225.11682119965553,225.40079110022634,2,normal,0.30080739967525005,[-0.05925925925925926],[0.175],[1],[0],[0],[2.30080739967525],225.4010111000389,225.41636980045587,225.71674269996583,226.9857895001769,,,,,,,,,,Bradley_Zn,001,2024-11-13_10h31.09.822,Foreperiod_task,2024.2.1post4,60.01579622195129,2024-11-13 10h31.20.448948 -0800,
69,0,69,[-0.05925925925925926],[0.175],[1],[0],[0],[1.0338205993175507],,,,0,0,0,0,69,0,69,0,227.0017170002684,,,,,,,,,,,,226.98606269992888,227.0017170002684,0.00029089953750371933,227.0017170002684,227.0017170002684,227.2019181996584,227.48551480006427,227.48551480006427,227.48551480006427,227.5021959003061,228.02061619982123,0.5,normal,0.5338205993175507,[-0.05925925925925926],[0.175],[1],[0],[0],[1.0338205993175507],228.0209833998233,228.0358958998695,228.33618879970163,229.45460079982877,,,,,,,,,,Bradley_Zn,001,2024-11-13_10h31.09.822,Foreperiod_task,2024.2.1post4,60.01579622195129,2024-11-13 10h31.20.448948 -0800,
70,0,70,[-0.05925925925925926],[0.175],[1],[0],[0],[2.451983199454844],,,,0,0,0,0,70,0,70,0,229.47051439993083,,,,,,,,,,,,229.45486570056528,229.47051439993083,0.0002813003957271576,229.47051439993083,229.47051439993083,229.6709109004587,231.45561160054058,231.45561160054058,231.45561160054058,231.4722241004929,231.90800520032644,2,normal,0.451983199454844,[-0.05925925925925926],[0.175],[1],[0],[0],[2.451983199454844],231.90848639979959,231.9225649004802,232.22275490034372,233.1408895002678,,,,,,,,,,Bradley_Zn,001,2024-11-13_10h31.09.822,Foreperiod_task,2024.2.1post4,60.01579622195129,2024-11-13 10h31.20.448948 -0800,
71,0,71,[-0.05925925925925926],[0.175],[1],[0],[0],[2.2685962999239564],,,,0,0,0,0,71,0,71,0,233.156628199853,,,,,,,,,,,,233.1412204001099,233.156628199853,0.0003586001694202423,233.156628199853,233.156628199853,233.35699329990894,235.141889099963,235.141889099963,235.141889099963,235.15864720009267,235.41048189997673,2,normal,0.2685962999239564,[-0.05925925925925926],[0.175],[1],[0],[0],[2.2685962999239564],235.41082420013845,235.42566320020705,235.7247464004904,236.77636490017176,,,,,,,,,,Bradley_Zn,001,2024-11-13_10h31.09.822,Foreperiod_task,2024.2.1post4,60.01579622195129,2024-11-13 10h31.20.448948 -0800,
72,0,72,[-0.05925925925925926],[0.175],[1],[0],[0],[2.2859722999855876],,,,0,0,0,0,72,0,72,0,236.79240810032934,,,,,,,,,,,,236.7764670997858,236.79240810032934,0.00010529998689889908,236.79240810032934,236.79240810032934,236.9927487000823,238.7782442998141,238.7782442998141,238.7782442998141,238.79497800022364,239.0630825003609,2,normal,0.2859722999855876,[-0.05925925925925926],[0.175],[1],[0],[0],[2.2859722999855876],239.06347519997507,239.07859520055354,239.37868889980018,240.66397160012275,,,,,,,,,,Bradley_Zn,001,2024-11-13_10h31.09.822,Foreperiod_task,2024.2.1post4,60.01579622195129,2024-11-13 10h31.20.448948 -0800,
73,0,73,[-0.05925925925925926],[0.175],[1],[0],[0],[0.833623600192368],,,,0,0,0,0,73,0,73,0,240.67983060050756,,,,,,,,,,,,240.6642493000254,240.67983060050756,0.00029499921947717667,240.67983060050756,240.67983060050756,240.87990180030465,241.1632840000093,241.1632840000093,241.1632840000093,241.18021079991013,241.4987262999639,0.5,normal,0.33362360019236803,[-0.05925925925925926],[0.175],[1],[0],[0],[0.833623600192368],241.49928980041295,241.51402840018272,241.8140724003315,242.76471460051835,,,,,,,,,,Bradley_Zn,001,2024-11-13_10h31.09.822,Foreperiod_task,2024.2.1post4,60.01579622195129,2024-11-13 10h31.20.448948 -0800,
74,0,74,[-0.05925925925925926],[0.175],[1],[0],[0],[0.801256600767374],,,,0,0,0,0,74,0,74,0,242.7816753005609,,,,,,,,,,,,242.7648991998285,242.7816753005609,0.00019569974392652512,242.7816753005609,242.7816753005609,242.9816551003605,243.26560080051422,243.26560080051422,243.26560080051422,243.28218539990485,243.56687039975077,0.5,normal,0.30125660076737404,[-0.05925925925925926],[0.175],[1],[0],[0],[0.801256600767374],243.56740219984204,243.58221369981766,243.8824217999354,245.21749630011618,,,,,,,,,,Bradley_Zn,001,2024-11-13_10h31.09.822,Foreperiod_task,2024.2.1post4,60.01579622195129,2024-11-13 10h31.20.448948 -0800,
75,0,75,[-0.05925925925925926],[0.175],[1],[0],[0],[0.8167058005928993],,,,0,0,0,0,75,0,75,0,245.23357070051134,,,,,,,,,,,,245.21777680050582,245.23357070051134,0.00030350033193826675,245.23357070051134,245.23357070051134,245.43396160006523,245.71739959996194,245.71739959996194,245.71739959996194,245.73352540004998,246.0350392004475,0.5,normal,0.3167058005928993,[-0.05925925925925926],[0.175],[1],[0],[0],[0.8167058005928993],246.03535000048578,246.05064280051738,246.351114500314,247.23606219980866,,,,,,,,,,Bradley_Zn,001,2024-11-13_10h31.09.822,Foreperiod_task,2024.2.1post4,60.01579622195129,2024-11-13 10h31.20.448948 -0800,
76,0,76,[-0.05925925925925926],[0.175],[1],[0],[0],[2.4681617999449372],,,,0,0,0,0,76,0,76,0,247.25187559984624,,,,,,,,,,,,247.23634759988636,247.25187559984624,0.0003049997612833977,247.25187559984624,247.25187559984624,247.45296679995954,249.23717250023037,249.23717250023037,249.23717250023037,249.25373980030417,249.70531930029392,2,normal,0.46816179994493723,[-0.05925925925925926],[0.175],[1],[0],[0],[2.4681617999449372],249.7057304996997,249.72066660039127,250.02086899988353,251.22253779973835,,,,,,,,,,Bradley_Zn,001,2024-11-13_10h31.09.822,Foreperiod_task,2024.2.1post4,60.01579622195129,2024-11-13 10h31.20.448948 -0800,
77,0,77,[-0.05925925925925926],[0.175],[1],[0],[0],[0.8173637995496392],,,,0,0,0,0,77,0,77,0,251.23859030008316,,,,,,,,,,,,251.22281320020556,251.23859030008316,0.0002960003912448883,251.23859030008316,251.23859030008316,251.4387427996844,251.72264780011028,251.72264780011028,251.72264780011028,251.73844149988145,252.0411464003846,0.5,normal,0.3173637995496392,[-0.05925925925925926],[0.175],[1],[0],[0],[0.8173637995496392],252.04158660024405,252.05595349986106,252.35621139965951,253.4246228998527,,,,,,,,,,Bradley_Zn,001,2024-11-13_10h31.09.822,Foreperiod_task,2024.2.1post4,60.01579622195129,2024-11-13 10h31.20.448948 -0800,
78,0,78,[-0.05925925925925926],[0.175],[1],[0],[0],[0.7668273001909256],,,,0,0,0,0,78,0,78,0,253.44047239981592,,,,,,,,,,,,253.4248911999166,253.44047239981592,0.0002926001325249672,253.44047239981592,253.44047239981592,253.64069500006735,253.9241519002244,253.9241519002244,253.9241519002244,253.94085610006005,254.19256970006973,0.5,normal,0.2668273001909256,[-0.05925925925925926],[0.175],[1],[0],[0],[0.7668273001909256],254.19293349981308,254.2078657001257,254.5080895004794,255.54318210016936,,,,,,,,,,Bradley_Zn,001,2024-11-13_10h31.09.822,Foreperiod_task,2024.2.1post4,60.01579622195129,2024-11-13 10h31.20.448948 -0800,
79,0,79,[-0.05925925925925926],[0.175],[1],[0],[0],[2.318043800070882],,,,0,0,0,0,79,0,79,0,255.55908169969916,,,,,,,,,,,,255.543451000005,255.55908169969916,0.0002807006239891052,255.55908169969916,255.55908169969916,255.75923420023173,257.54392580036074,257.54392580036074,257.54392580036074,257.56075009983033,257.86228480003774,2,normal,0.31804380007088184,[-0.05925925925925926],[0.175],[1],[0],[0],[2.318043800070882],257.8627289002761,257.87747230008245,258.1777109997347,259.0795189999044,,,,,,,,,,Bradley_Zn,001,2024-11-13_10h31.09.822,Foreperiod_task,2024.2.1post4,60.01579622195129,2024-11-13 10h31.20.448948 -0800,
80,0,80,[-0.05925925925925926],[0.175],[1],[0],[0],[0.816172200255096],,,,0,0,0,0,80,0,80,0,259.0953927002847,,,,,,,,,,,,259.07981500029564,259.0953927002847,0.00030819978564977646,259.0953927002847,259.0953927002847,259.2952554002404,259.5788463000208,259.5788463000208,259.5788463000208,259.59575599990785,259.89666960015893,0.5,normal,0.31617220025509596,[-0.05925925925925926],[0.175],[1],[0],[0],[0.816172200255096],259.8970058998093,259.91250959970057,260.21283399965614,261.3976974999532,,,,,,,,,,Bradley_Zn,001,2024-11-13_10h31.09.822,Foreperiod_task,2024.2.1post4,60.01579622195129,2024-11-13 10h31.20.448948 -0800,
81,0,81,[-0.05925925925925926],[0.175],[1],[0],[0],[0.850004400126636],,,,0,0,0,0,81,0,81,0,261.4136930005625,,,,,,,,,,,,261.3980735996738,261.4136930005625,0.0003956994041800499,261.4136930005625,261.4136930005625,261.6132711004466,261.89741270057857,261.89741270057857,261.89741270057857,261.91407909989357,262.24889579974115,0.5,normal,0.35000440012663603,[-0.05925925925925926],[0.175],[1],[0],[0],[0.850004400126636],262.24937080033123,262.2643927996978,262.5648378999904,263.64990650024265,,,,,,,,,,Bradley_Zn,001,2024-11-13_10h31.09.822,Foreperiod_task,2024.2.1post4,60.01579622195129,2024-11-13 10h31.20.448948 -0800,
82,0,82,[-0.05925925925925926],[0.175],[1],[0],[0],[2.2671893006190658],,,,0,0,0,0,82,0,82,0,263.6656792005524,,,,,,,,,,,,263.65020619984716,263.6656792005524,0.00031010061502456665,263.6656792005524,263.6656792005524,263.86573730036616,265.65062199998647,265.65062199998647,265.65062199998647,265.6671882998198,265.91790330037475,2,normal,0.26718930061906576,[-0.05925925925925926],[0.175],[1],[0],[0],[2.2671893006190658],265.9181196996942,265.93344970047474,266.23437140043825,267.31925460044295,,,,,,,,,,Bradley_Zn,001,2024-11-13_10h31.09.822,Foreperiod_task,2024.2.1post4,60.01579622195129,2024-11-13 10h31.20.448948 -0800,
83,0,83,[-0.05925925925925926],[0.175],[1],[0],[0],[0.7671146998181939],,,,0,0,0,0,83,0,83,0,267.33539350051433,,,,,,,,,,,,267.3195189004764,267.33539350051433,0.0003033000975847244,267.33539350051433,267.33539350051433,267.53545069973916,267.8190679997206,267.8190679997206,267.8190679997206,267.8358535002917,268.08748050034046,0.5,normal,0.2671146998181939,[-0.05925925925925926],[0.175],[1],[0],[0],[0.7671146998181939],268.0878918999806,268.10270810034126,268.4028201000765,269.33775330055505,,,,,,,,,,Bradley_Zn,001,2024-11-13_10h31.09.822,Foreperiod_task,2024.2.1post4,60.01579622195129,2024-11-13 10h31.20.448948 -0800,
84,0,84,[-0.05925925925925926],[0.175],[1],[0],[0],[0.8002011999487877],,,,0,0,0,0,84,0,84,0,269.35386980045587,,,,,,,,,,,,269.33805960044265,269.35386980045587,0.0003304993733763695,269.35386980045587,269.35386980045587,269.5539555000141,269.83744820021093,269.83744820021093,269.83744820021093,269.8540316000581,270.1390100000426,0.5,normal,0.3002011999487877,[-0.05925925925925926],[0.175],[1],[0],[0],[0.8002011999487877],270.1395749002695,270.15446139965206,270.4545178003609,271.4726728005335,,,,,,,,,,Bradley_Zn,001,2024-11-13_10h31.09.822,Foreperiod_task,2024.2.1post4,60.01579622195129,2024-11-13 10h31.20.448948 -0800,
85,0,85,[-0.05925925925925926],[0.175],[1],[0],[0],[1.5175584005191922],,,,0,0,0,0,85,0,85,0,271.48873410001397,,,,,,,,,,,,271.47295949980617,271.48873410001397,0.00030529964715242386,271.48873410001397,271.48873410001397,271.68895940016955,272.72339980024844,272.72339980024844,272.72339980024844,272.73936880007386,272.9912501005456,1.239176682527211,surprise,0.2783817179919812,[-0.05925925925925926],[0.175],[1],[0],[0],[1.5175584005191922],272.99169380031526,273.00667989999056,273.30692659970373,274.4752253005281,,,,,,,,,,Bradley_Zn,001,2024-11-13_10h31.09.822,Foreperiod_task,2024.2.1post4,60.01579622195129,2024-11-13 10h31.20.448948 -0800,
86,0,86,[-0.05925925925925926],[0.175],[1],[0],[0],[2.3684085002169013],,,,0,0,0,0,86,0,86,0,274.4912644997239,,,,,,,,,,,,274.4755466999486,274.4912644997239,0.0003412999212741852,274.4912644997239,274.4912644997239,274.691408299841,276.4762546001002,276.4762546001002,276.4762546001002,276.49298750050366,276.8447671001777,2,normal,0.3684085002169013,[-0.05925925925925926],[0.175],[1],[0],[0],[2.3684085002169013],276.8451444003731,276.85997310001403,277.1600254997611,278.4786630999297,,,,,,,,,,Bradley_Zn,001,2024-11-13_10h31.09.822,Foreperiod_task,2024.2.1post4,60.01579622195129,2024-11-13 10h31.20.448948 -0800,
87,0,87,[-0.05925925925925926],[0.175],[1],[0],[0],[2.384991900064051],,,,0,0,0,0,87,0,87,0,278.4945058999583,,,,,,,,,,,,278.47891200054437,278.4945058999583,0.0002651996910572052,278.4945058999583,278.4945058999583,278.6948156002909,280.47965870052576,280.47965870052576,280.47965870052576,280.4962897002697,280.86478659976274,2,normal,0.38499190006405115,[-0.05925925925925926],[0.175],[1],[0],[0],[2.384991900064051],280.86530470009893,280.88017010036856,281.1801601005718,282.4818452000618,,,,,,,,,,Bradley_Zn,001,2024-11-13_10h31.09.822,Foreperiod_task,2024.2.1post4,60.01579622195129,2024-11-13 10h31.20.448948 -0800,
88,0,88,[-0.05925925925925926],[0.175],[1],[0],[0],[2.3182704001665115],,,,0,0,0,0,88,0,88,0,282.49794729985297,,,,,,,,,,,,282.48210070002824,282.49794729985297,0.0002749003469944,282.49794729985297,282.49794729985297,282.6980392001569,284.4828511001542,284.4828511001542,284.4828511001542,284.49948369991034,284.8011899003759,2,normal,0.31827040016651154,[-0.05925925925925926],[0.175],[1],[0],[0],[2.3182704001665115],284.8016061997041,284.81695879995823,285.11659019999206,286.3848270997405,,,,,,,,,,Bradley_Zn,001,2024-11-13_10h31.09.822,Foreperiod_task,2024.2.1post4,60.01579622195129,2024-11-13 10h31.20.448948 -0800,
89,0,89,[-0.05925925925925926],[0.175],[1],[0],[0],[0.8007184006273746],,,,0,0,0,0,89,0,89,0,286.4010695004836,,,,,,,,,,,,286.3849692000076,286.4010695004836,0.0001458004117012024,286.4010695004836,286.4010695004836,286.6012713005766,286.88489919994026,286.88489919994026,286.88489919994026,286.9016438005492,287.1866613999009,0.5,normal,0.30071840062737465,[-0.05925925925925926],[0.175],[1],[0],[0],[0.8007184006273746],287.18704220000654,287.2018066002056,287.5020129000768,288.87045919988304,,,,,,,,,,Bradley_Zn,001,2024-11-13_10h31.09.822,Foreperiod_task,2024.2.1post4,60.01579622195129,2024-11-13 10h31.20.448948 -0800,
90,0,90,[-0.058333333333333334],[0.175],[1],[0],[0],[2.234906000085175],,,,0,0,0,0,90,0,90,0,288.8865799997002,,,,,,,,,,,,288.87073259986937,288.8865799997002,0.0002907002344727516,288.8865799997002,288.8865799997002,289.08687799982727,290.8714936999604,290.8714936999604,290.8714936999604,290.8882561996579,291.10641030035913,2,normal,0.23490600008517504,[-0.058333333333333334],[0.175],[1],[0],[0],[2.234906000085175],291.10686970036477,291.121896000579,291.42162030003965,292.5736210998148,,,,,,,,,,Bradley_Zn,001,2024-11-13_10h31.09.822,Foreperiod_task,2024.2.1post4,60.01579622195129,2024-11-13 10h31.20.448948 -0800,
91,0,91,[-0.058333333333333334],[0.175],[1],[0],[0],[2.318280399776995],,,,0,0,0,0,91,0,91,0,292.5895370999351,,,,,,,,,,,,292.57390139997005,292.5895370999351,0.00029559992253780365,292.5895370999351,292.5895370999351,292.7897848999128,294.5746106998995,294.5746106998995,294.5746106998995,294.5912420004606,294.89292929973453,2,normal,0.3182803997769952,[-0.058333333333333334],[0.175],[1],[0],[0],[2.318280399776995],294.8933410998434,294.90819360036403,295.2086236998439,296.093192900531,,,,,,,,,,Bradley_Zn,001,2024-11-13_10h31.09.822,Foreperiod_task,2024.2.1post4,60.01579622195129,2024-11-13 10h31.20.448948 -0800,
92,0,92,[-0.058333333333333334],[0.175],[1],[0],[0],[1.0171777997165918],,,,0,0,0,0,92,0,92,0,296.10915490053594,,,,,,,,,,,,296.0934603996575,296.10915490053594,0.00028480030596256256,296.10915490053594,296.10915490053594,296.3094206005335,296.59300350025296,296.59300350025296,296.59300350025296,296.6098074996844,297.11137219984084,0.5,normal,0.5171777997165918,[-0.058333333333333334],[0.175],[1],[0],[0],[1.0171777997165918],297.11171740014106,297.1267892001197,297.4269872996956,298.7612059004605,,,,,,,,,,Bradley_Zn,001,2024-11-13_10h31.09.822,Foreperiod_task,2024.2.1post4,60.01579622195129,2024-11-13 10h31.20.448948 -0800,
93,0,93,[-0.058333333333333334],[0.175],[1],[0],[0],[2.3695839000865817],,,,0,0,0,0,93,0,93,0,298.7780942004174,,,,,,,,,,,,298.76135409995914,298.7780942004174,0.000156499445438385,298.7780942004174,298.7780942004174,298.9783878996968,300.762439600192,300.762439600192,300.762439600192,300.77941079996526,301.13173709996045,2,normal,0.3695839000865817,[-0.058333333333333334],[0.175],[1],[0],[0],[2.3695839000865817],301.1323496000841,301.14691410027444,301.44696160033345,302.59877850022167,,,,,,,,,,Bradley_Zn,001,2024-11-13_10h31.09.822,Foreperiod_task,2024.2.1post4,60.01579622195129,2024-11-13 10h31.20.448948 -0800,
94,0,94,[-0.058333333333333334],[0.175],[1],[0],[0],[2.3183752996847034],,,,0,0,0,0,94,0,94,0,302.61462910007685,,,,,,,,,,,,302.599063700065,302.61462910007685,0.00030350033193826675,302.61462910007685,302.61462910007685,302.81456319987774,304.59964750055224,304.59964750055224,304.59964750055224,304.6163229998201,304.9182636998594,2,normal,0.31837529968470335,[-0.058333333333333334],[0.175],[1],[0],[0],[2.3183752996847034],304.9187684999779,304.9332004003227,305.233485000208,306.21857890021056,,,,,,,,,,Bradley_Zn,001,2024-11-13_10h31.09.822,Foreperiod_task,2024.2.1post4,60.01579622195129,2024-11-13 10h31.20.448948 -0800,
95,0,95,[-0.05648148148148148],[0.17592592592592593],[1],[0],[0],[2.351341299712658],,,,0,0,0,0,95,0,95,0,306.23451020009816,,,,,,,,,,,,306.21887920051813,306.23451020009816,0.00029639992862939835,306.23451020009816,306.23451020009816,306.4346583997831,308.21942580025643,308.21942580025643,308.21942580025643,308.23607890028507,308.57100019976497,2,normal,0.35134129971265793,[-0.05648148148148148],[0.17592592592592593],[1],[0],[0],[2.351341299712658],308.5714408000931,308.5866860002279,308.886934700422,309.8546270998195,,,,,,,,,,Bradley_Zn,001,2024-11-13_10h31.09.822,Foreperiod_task,2024.2.1post4,60.01579622195129,2024-11-13 10h31.20.448948 -0800,
96,0,96,[-0.05648148148148148],[0.17592592592592593],[1],[0],[0],[0.8333938997238874],,,,0,0,0,0,96,0,96,0,309.87063760031015,,,,,,,,,,,,309.8548955004662,309.87063760031015,0.00028689950704574585,309.87063760031015,309.87063760031015,310.0708552002907,310.3545059002936,310.3545059002936,310.3545059002936,310.37117830011994,310.6890719002113,0.5,normal,0.33339389972388744,[-0.05648148148148148],[0.17592592592592593],[1],[0],[0],[0.8333938997238874],310.68957910034806,310.70465669967234,311.0051407003775,312.2569156996906,,,,,,,,,,Bradley_Zn,001,2024-11-13_10h31.09.822,Foreperiod_task,2024.2.1post4,60.01579622195129,2024-11-13 10h31.20.448948 -0800,
97,0,97,[-0.05648148148148148],[0.17592592592592593],[1],[0],[0],[1.7668783999979496],,,,0,0,0,0,97,0,97,0,312.2728120004758,,,,,,,,,,,,312.2572157001123,312.2728120004758,0.0003129001706838608,312.2728120004758,312.2728120004758,312.4728421000764,313.72396260034293,313.72396260034293,313.72396260034293,313.74061140045524,314.0248813005164,1.4595772943609213,surprise,0.3073011056370283,[-0.05648148148148148],[0.17592592592592593],[1],[0],[0],[1.7668783999979496],314.02545510046184,314.040914000012,314.34052640013397,315.60965269990265,,,,,,,,,,Bradley_Zn,001,2024-11-13_10h31.09.822,Foreperiod_task,2024.2.1post4,60.01579622195129,2024-11-13 10h31.20.448948 -0800,
98,0,98,[-0.05648148148148148],[0.17592592592592593],[1],[0],[0],[2.468305599875748],,,,0,0,0,0,98,0,98,0,315.62558849994093,,,,,,,,,,,,315.6099177999422,315.62558849994093,0.00027159973978996277,315.62558849994093,315.62558849994093,315.8259530002251,317.6100230002776,317.6100230002776,317.6100230002776,317.6274816002697,318.07900239992887,2,normal,0.46830559987574816,[-0.05648148148148148],[0.17592592592592593],[1],[0],[0],[2.468305599875748],318.0796715002507,318.09419819992036,318.39443990029395,319.5962207997218,,,,,,,,,,Bradley_Zn,001,2024-11-13_10h31.09.822,Foreperiod_task,2024.2.1post4,60.01579622195129,2024-11-13 10h31.20.448948 -0800,
99,0,99,[-0.05648148148148148],[0.17592592592592593],[1],[0],[0],[2.284263299778104],,,,0,0,0,0,99,0,99,0,319.61257360037416,,,,,,,,,,,,319.59650470037013,319.61257360037416,0.00028930045664310455,319.61257360037416,319.61257360037416,319.8124114004895,321.59717410057783,321.59717410057783,321.59717410057783,321.6138187004253,321.88136320002377,2,normal,0.28426329977810383,[-0.05648148148148148],[0.17592592592592593],[1],[0],[0],[2.284263299778104],321.881754799746,321.8973588999361,322.197695299983,323.1657071001828,,,,,,,,,,Bradley_Zn,001,2024-11-13_10h31.09.822,Foreperiod_task,2024.2.1post4,60.01579622195129,2024-11-13 10h31.20.448948 -0800,
0,0,0,,,,,,,space,13.977546899579465,None,0,0,0,0,,,,,,,,,,,,,,,,,,,,,,,,,,,,,,,,,,,,,,,,,323.1823931001127,323.1859622001648,324.16645540017635,338.14566970057786,space,13.977546899579465,None,,,Bradley_Zn,001,2024-11-13_10h31.09.822,Foreperiod_task,2024.2.1post4,60.01579622195129,2024-11-13 10h31.20.448948 -0800,
0,0,0,[-0.04722222222222222],[0.19166666666666668],[1],[0],[0],[2.4670474007725716],,,,1,0,1,0,0,0,0,0,338.16072340030223,,,,,,,,,,,,338.1465282002464,338.16072340030223,0.0008461000397801399,338.16072340030223,338.16072340030223,338.3610795000568,340.1461642002687,340.1461642002687,340.1461642002687,340.1626802999526,340.6143795000389,2,normal,0.46704740077257156,[-0.04722222222222222],[0.19166666666666668],[1],[0],[0],[2.4670474007725716],340.6148584000766,340.6298368005082,340.92984199989587,341.96520250011235,,,,,,,,,,Bradley_Zn,001,2024-11-13_10h31.09.822,Foreperiod_task,2024.2.1post4,60.01579622195129,2024-11-13 10h31.20.448948 -0800,
1,0,1,[-0.04722222222222222],[0.19166666666666668],[1],[0],[0],[2.284685700200498],,,,1,0,1,0,1,0,1,0,341.98061440046877,,,,,,,,,,,,341.9654852999374,341.98061440046877,0.00030079949647188187,341.98061440046877,341.98061440046877,342.18107120040804,343.9657634003088,343.9657634003088,343.9657634003088,343.9824469005689,344.2511136997491,2,normal,0.2846857002004981,[-0.04722222222222222],[0.19166666666666668],[1],[0],[0],[2.284685700200498],344.2517023002729,344.2661188002676,344.56621349975467,345.4509862996638,,,,,,,,,,Bradley_Zn,001,2024-11-13_10h31.09.822,Foreperiod_task,2024.2.1post4,60.01579622195129,2024-11-13 10h31.20.448948 -0800,
2,0,2,[-0.11018518518518519],[0.16296296296296298],[1],[0],[0],[1.6845009000971913],,,,1,0,1,0,2,0,2,0,345.46695210039616,,,,,,,,,,,,345.45124510023743,345.46695210039616,0.0002744002267718315,345.46695210039616,345.46695210039616,345.66715160012245,346.8517025997862,346.8517025997862,346.8517025997862,346.8683235999197,347.13655170053244,1.3842069474309162,surprise,0.3002939526662751,[-0.11018518518518519],[0.16296296296296298],[1],[0],[0],[1.6845009000971913],347.1369599001482,347.1517687002197,347.4518856005743,348.58684580028057,,,,,,,,,,Bradley_Zn,001,2024-11-13_10h31.09.822,Foreperiod_task,2024.2.1post4,60.01579622195129,2024-11-13 10h31.20.448948 -0800,
3,0,3,[-0.11018518518518519],[0.16296296296296298],[1],[0],[0],[0.900420899502933],,,,1,0,1,0,3,0,3,0,348.6029222998768,,,,,,,,,,,,348.58711689990014,348.6029222998768,0.00028900057077407837,348.6029222998768,348.6029222998768,348.8031510002911,349.0867757005617,349.0867757005617,349.0867757005617,349.103244099766,349.48835709970444,0.5,normal,0.400420899502933,[-0.11018518518518519],[0.16296296296296298],[1],[0],[0],[0.900420899502933],349.488763500005,349.5034883003682,349.8039993997663,351.00566480029374,,,,,,,,,,Bradley_Zn,001,2024-11-13_10h31.09.822,Foreperiod_task,2024.2.1post4,60.01579622195129,2024-11-13 10h31.20.448948 -0800,
4,0,4,[-0.11018518518518519],[0.16296296296296298],[1],[0],[0],[0.8169040000066161],,,,1,0,1,0,4,0,4,0,351.021502699703,,,,,,,,,,,,351.0059537002817,351.021502699703,0.000300699844956398,351.021502699703,351.021502699703,351.22198410052806,351.50542670022696,351.50542670022696,351.50542670022696,351.522093700245,351.8236257005483,0.5,normal,0.3169040000066161,[-0.11018518518518519],[0.16296296296296298],[1],[0],[0],[0.8169040000066161],351.8240596000105,351.8391625005752,352.13919560052454,353.1077477997169,,,,,,,,,,Bradley_Zn,001,2024-11-13_10h31.09.822,Foreperiod_task,2024.2.1post4,60.01579622195129,2024-11-13 10h31.20.448948 -0800,
5,0,5,[-0.11018518518518519],[0.16296296296296298],[1],[0],[0],[2.2844468001276255],,,,1,0,1,0,5,0,5,0,353.123479699716,,,,,,,,,,,,353.1080766003579,353.123479699716,0.0003370000049471855,353.123479699716,353.123479699716,353.32359139993787,355.10842460021377,355.10842460021377,355.10842460021377,355.12495009973645,355.39339600037783,2,normal,0.28444680012762547,[-0.11018518518518519],[0.16296296296296298],[1],[0],[0],[2.2844468001276255],355.39381940010935,355.4085587002337,355.70888220053166,356.72710719984025,,,,,,,,,,Bradley_Zn,001,2024-11-13_10h31.09.822,Foreperiod_task,2024.2.1post4,60.01579622195129,2024-11-13 10h31.20.448948 -0800,
6,0,6,[-0.11018518518518519],[0.16296296296296298],[1],[0],[0],[2.3014981001615524],,,,1,0,1,0,6,0,6,0,356.7432752000168,,,,,,,,,,,,356.7273836005479,356.7432752000168,0.0002845004200935364,356.7432752000168,356.7432752000168,356.9432503003627,358.7285138005391,358.7285138005391,358.7285138005391,358.7447365997359,359.0296859005466,2,normal,0.30149810016155243,[-0.11018518518518519],[0.16296296296296298],[1],[0],[0],[2.3014981001615524],359.03011600021273,359.04493120033294,359.34520110022277,360.346839800477,,,,,,,,,,Bradley_Zn,001,2024-11-13_10h31.09.822,Foreperiod_task,2024.2.1post4,60.01579622195129,2024-11-13 10h31.20.448948 -0800,
7,0,7,[-0.11018518518518519],[0.16296296296296298],[1],[0],[0],[2.234899800270796],,,,1,0,1,0,7,0,7,0,360.36236750055104,,,,,,,,,,,,360.3471108004451,360.36236750055104,0.0002943994477391243,360.36236750055104,360.36236750055104,360.5629221005365,362.34787419997156,362.34787419997156,362.34787419997156,362.36454220023006,362.58281289972365,2,normal,0.23489980027079582,[-0.11018518518518519],[0.16296296296296298],[1],[0],[0],[2.234899800270796],362.5832409998402,362.59801040031016,362.89816279988736,364.23343009967357,,,,,,,,,,Bradley_Zn,001,2024-11-13_10h31.09.822,Foreperiod_task,2024.2.1post4,60.01579622195129,2024-11-13 10h31.20.448948 -0800,
8,0,8,[-0.11018518518518519],[0.16296296296296298],[1],[0],[0],[2.285399599932134],,,,1,0,1,0,8,0,8,0,364.24929609987885,,,,,,,,,,,,364.2336864005774,364.24929609987885,0.00027140043675899506,364.24929609987885,364.24929609987885,364.4496320998296,366.23439909983426,366.23439909983426,366.23439909983426,366.2510484997183,366.52005130052567,2,normal,0.28539959993213415,[-0.11018518518518519],[0.16296296296296298],[1],[0],[0],[2.285399599932134],366.5206059999764,366.53475159965456,366.8348949998617,368.0368929002434,,,,,,,,,,Bradley_Zn,001,2024-11-13_10h31.09.822,Foreperiod_task,2024.2.1post4,60.01579622195129,2024-11-13 10h31.20.448948 -0800,
9,0,9,[-0.11018518518518519],[0.16296296296296298],[1],[0],[0],[0.916682300157845],,,,1,0,1,0,9,0,9,0,368.05244799982756,,,,,,,,,,,,368.0372088998556,368.05244799982756,0.00033690035343170166,368.05244799982756,368.05244799982756,368.25281320046633,368.55308680050075,368.55308680050075,368.55308680050075,368.56974940001965,368.95483590010554,0.5,normal,0.416682300157845,[-0.11018518518518519],[0.16296296296296298],[1],[0],[0],[0.916682300157845],368.95525760017335,368.97019559983164,369.26987440045923,370.4888228001073,,,,,,,,,,Bradley_Zn,001,2024-11-13_10h31.09.822,Foreperiod_task,2024.2.1post4,60.01579622195129,2024-11-13 10h31.20.448948 -0800,
10,0,10,[-0.11018518518518519],[0.16296296296296298],[1],[0],[0],[2.301231300458312],,,,1,0,1,0,10,0,10,0,370.50467659998685,,,,,,,,,,,,370.48912130016834,370.50467659998685,0.0003108000382781029,370.50467659998685,370.50467659998685,370.7046982003376,372.48955349996686,372.48955349996686,372.48955349996686,372.50629379972816,372.7911171000451,2,normal,0.30123130045831203,[-0.11018518518518519],[0.16296296296296298],[1],[0],[0],[2.301231300458312],372.791574800387,372.8063254998997,373.10633020009845,374.27503690030426,,,,,,,,,,Bradley_Zn,001,2024-11-13_10h31.09.822,Foreperiod_task,2024.2.1post4,60.01579622195129,2024-11-13 10h31.20.448948 -0800,
11,0,11,[-0.11018518518518519],[0.16296296296296298],[1],[0],[0],[0.8838700000196695],,,,1,0,1,0,11,0,11,0,374.291107499972,,,,,,,,,,,,374.275315400213,374.291107499972,0.00029639992862939835,374.291107499972,374.291107499972,374.49141249991953,374.7750361999497,374.7750361999497,374.7750361999497,374.79158740025014,375.1599919004366,0.5,normal,0.38387000001966953,[-0.11018518518518519],[0.16296296296296298],[1],[0],[0],[0.8838700000196695],375.1604366004467,375.1751469997689,375.4754999997094,376.7115623001009,,,,,,,,,,Bradley_Zn,001,2024-11-13_10h31.09.822,Foreperiod_task,2024.2.1post4,60.01579622195129,2024-11-13 10h31.20.448948 -0800,
12,0,12,[-0.11481481481481481],[0.1962962962962963],[1],[0],[0],[1.6328802993521094],,,,1,0,1,0,12,0,12,0,376.72634870000184,,,,,,,,,,,,376.71183730009943,376.72634870000184,0.000291300006210804,376.72634870000184,376.72634870000184,376.92647469975054,378.04417499992996,378.04417499992996,378.04417499992996,378.06085630040616,378.3455242998898,1.3332730311144825,surprise,0.29960726823762696,[-0.11481481481481481],[0.1962962962962963],[1],[0],[0],[1.6328802993521094],378.345933300443,378.3611767999828,378.6613694000989,379.7468458004296,,,,,,,,,,Bradley_Zn,001,2024-11-13_10h31.09.822,Foreperiod_task,2024.2.1post4,60.01579622195129,2024-11-13 10h31.20.448948 -0800,
13,0,13,[-0.11481481481481481],[0.1962962962962963],[1],[0],[0],[0.8662999998778105],,,,1,0,1,0,13,0,13,0,379.7624425003305,,,,,,,,,,,,379.74713070038706,379.7624425003305,0.000296199694275856,379.7624425003305,379.7624425003305,379.9625208005309,380.24612279981375,380.24612279981375,380.24612279981375,380.26271940022707,380.61418819986284,0.5,normal,0.3662999998778105,[-0.11481481481481481],[0.1962962962962963],[1],[0],[0],[0.8662999998778105],380.61462569981813,380.62959340028465,380.9298935998231,382.0482764001936,,,,,,,,,,Bradley_Zn,001,2024-11-13_10h31.09.822,Foreperiod_task,2024.2.1post4,60.01579622195129,2024-11-13 10h31.20.448948 -0800,
14,0,14,[-0.11481481481481481],[0.1962962962962963],[1],[0],[0],[0.8495410000905395],,,,1,0,1,0,14,0,14,0,382.06425310019404,,,,,,,,,,,,382.04858470056206,382.06425310019404,0.0003299005329608917,382.06425310019404,382.06425310019404,382.2644006004557,382.5481740999967,382.5481740999967,382.5481740999967,382.56476160045713,382.89873689971864,0.5,normal,0.34954100009053946,[-0.11481481481481481],[0.1962962962962963],[1],[0],[0],[0.8495410000905395],382.89899300038815,382.9146968005225,383.21510600019246,384.33253089990467,,,,,,,,,,Bradley_Zn,001,2024-11-13_10h31.09.822,Foreperiod_task,2024.2.1post4,60.01579622195129,2024-11-13 10h31.20.448948 -0800,
15,0,15,[-0.11481481481481481],[0.1962962962962963],[1],[0],[0],[1.5176340993493795],,,,1,0,1,0,15,0,15,0,384.34859330020845,,,,,,,,,,,,384.33265039976686,384.34859330020845,0.0001243995502591133,384.34859330020845,384.34859330020845,384.5487670004368,385.53372950013727,385.53372950013727,385.53372950013727,385.5504900002852,385.85065759997815,1.1929072258202975,surprise,0.324726873529082,[-0.11481481481481481],[0.1962962962962963],[1],[0],[0],[1.5176340993493795],385.85086570028216,385.8673355001956,386.1675538001582,387.46927679982036,,,,,,,,,,Bradley_Zn,001,2024-11-13_10h31.09.822,Foreperiod_task,2024.2.1post4,60.01579622195129,2024-11-13 10h31.20.448948 -0800,
16,0,16,[-0.11481481481481481],[0.1962962962962963],[1],[0],[0],[1.3843171996995807],,,,1,0,1,0,16,0,16,0,387.4853539997712,,,,,,,,,,,,387.469542699866,387.4853539997712,0.00028610043227672577,387.4853539997712,387.4853539997712,387.6852874998003,388.5363312000409,388.5363312000409,388.5363312000409,388.5529193999246,388.8547558998689,1.0602889668475202,surprise,0.3240282328520605,[-0.11481481481481481],[0.1962962962962963],[1],[0],[0],[1.3843171996995807],388.8552018003538,388.869860900566,389.1699520004913,390.25471130013466,,,,,,,,,,Bradley_Zn,001,2024-11-13_10h31.09.822,Foreperiod_task,2024.2.1post4,60.01579622195129,2024-11-13 10h31.20.448948 -0800,
17,0,17,[-0.11481481481481481],[0.1962962962962963],[1],[0],[0],[0.8342466996982694],,,,1,0,1,0,17,0,17,0,390.27063590008765,,,,,,,,,,,,390.25496529974043,390.27063590008765,0.0002724006772041321,390.27063590008765,390.27063590008765,390.4710661005229,390.75462769996375,390.75462769996375,390.75462769996375,390.77124090027064,391.0900423005223,0.5,normal,0.33424669969826937,[-0.11481481481481481],[0.1962962962962963],[1],[0],[0],[0.8342466996982694],391.0905068004504,391.10486730001867,391.40524430014193,392.506889000535,,,,,,,,,,Bradley_Zn,001,2024-11-13_10h31.09.822,Foreperiod_task,2024.2.1post4,60.01579622195129,2024-11-13 10h31.20.448948 -0800,
18,0,18,[-0.11574074074074074],[0.1962962962962963],[1],[0],[0],[0.8170626005157828],,,,1,0,1,0,18,0,18,0,392.52296890038997,,,,,,,,,,,,392.5071694003418,392.52296890038997,0.0002929000183939934,392.52296890038997,392.52296890038997,392.7229187004268,393.00677760038525,393.00677760038525,393.00677760038525,393.02324470039457,393.32501340005547,0.5,normal,0.31706260051578283,[-0.11574074074074074],[0.1962962962962963],[1],[0],[0],[0.8170626005157828],393.3254171004519,393.34014070034027,393.6403336003423,394.6587067004293,,,,,,,,,,Bradley_Zn,001,2024-11-13_10h31.09.822,Foreperiod_task,2024.2.1post4,60.01579622195129,2024-11-13 10h31.20.448948 -0800,
19,0,19,[-0.11574074074074074],[0.1962962962962963],[1],[0],[0],[1.7178438995033503],,,,1,0,1,0,19,0,19,0,394.67470410000533,,,,,,,,,,,,394.65898049995303,394.67470410000533,0.00028319936245679855,394.67470410000533,394.67470410000533,394.8747676005587,396.09252290055156,396.09252290055156,396.09252290055156,396.1093126004562,396.37759929988533,1.4247854162409093,surprise,0.293058483262441,[-0.11574074074074074],[0.1962962962962963],[1],[0],[0],[1.7178438995033503],396.37797550018877,396.39273709990084,396.6931469999254,397.66101180016994,,,,,,,,,,Bradley_Zn,001,2024-11-13_10h31.09.822,Foreperiod_task,2024.2.1post4,60.01579622195129,2024-11-13 10h31.20.448948 -0800,
20,0,20,[-0.11574074074074074],[0.1962962962962963],[1],[0],[0],[0.8832947006449103],,,,1,0,1,0,20,0,20,0,397.6771296998486,,,,,,,,,,,,397.66129800025374,397.6771296998486,0.00030399952083826065,397.6771296998486,397.6771296998486,397.87729599978775,398.1608896004036,398.1608896004036,398.1608896004036,398.17744420003146,398.54528649989516,0.5,normal,0.38329470064491034,[-0.11574074074074074],[0.1962962962962963],[1],[0],[0],[0.8832947006449103],398.54566080030054,398.5611332003027,398.8614309998229,400.1631314000115,,,,,,,,,,Bradley_Zn,001,2024-11-13_10h31.09.822,Foreperiod_task,2024.2.1post4,60.01579622195129,2024-11-13 10h31.20.448948 -0800,
21,0,21,[-0.11574074074074074],[0.1962962962962963],[1],[0],[0],[0.9001705003902316],,,,1,0,1,0,21,0,21,0,400.1790840001777,,,,,,,,,,,,400.1634088996798,400.1790840001777,0.000295199453830719,400.1790840001777,400.1790840001777,400.3794111004099,400.66290150023997,400.66290150023997,400.66290150023997,400.67960579972714,401.06441320013255,0.5,normal,0.4001705003902316,[-0.11574074074074074],[0.1962962962962963],[1],[0],[0],[0.9001705003902316],401.06497900001705,401.07998639997095,401.380141899921,402.5153366997838,,,,,,,,,,Bradley_Zn,001,2024-11-13_10h31.09.822,Foreperiod_task,2024.2.1post4,60.01579622195129,2024-11-13 10h31.20.448948 -0800,
22,0,22,[-0.11574074074074074],[0.1962962962962963],[1],[0],[0],[0.850382000207901],,,,1,0,1,0,22,0,22,0,402.5312914000824,,,,,,,,,,,,402.51563690043986,402.5312914000824,0.00031509995460510254,402.5312914000824,402.5312914000824,402.731195400469,403.0149459000677,403.0149459000677,403.0149459000677,403.0316030997783,403.36677070055157,0.5,normal,0.350382000207901,[-0.11574074074074074],[0.1962962962962963],[1],[0],[0],[0.850382000207901],403.3673266004771,403.3821935998276,403.6819035997614,404.90052950009704,,,,,,,,,,Bradley_Zn,001,2024-11-13_10h31.09.822,Foreperiod_task,2024.2.1post4,60.01579622195129,2024-11-13 10h31.20.448948 -0800,
23,0,23,[-0.11574074074074074],[0.1962962962962963],[1],[0],[0],[2.284168199636042],,,,1,0,1,0,23,0,23,0,404.91637319978327,,,,,,,,,,,,404.90081910043955,404.91637319978327,0.00030900072306394577,404.91637319978327,404.91637319978327,405.116633400321,406.901047100313,406.901047100313,406.901047100313,406.91794729977846,407.1853846004233,2,normal,0.2841681996360421,[-0.11574074074074074],[0.1962962962962963],[1],[0],[0],[2.284168199636042],407.1855965005234,407.2014989005402,407.50185470003635,408.78685390017927,,,,,,,,,,Bradley_Zn,001,2024-11-13_10h31.09.822,Foreperiod_task,2024.2.1post4,60.01579622195129,2024-11-13 10h31.20.448948 -0800,
24,0,24,[-0.11574074074074074],[0.1962962962962963],[1],[0],[0],[2.2845294000580907],,,,1,0,1,0,24,0,24,0,408.8030706997961,,,,,,,,,,,,408.7871236996725,408.8030706997961,0.00028929952532052994,408.8030706997961,408.8030706997961,409.0031201997772,410.78790100011975,410.78790100011975,410.78790100011975,410.80459440033883,411.0723873004317,2,normal,0.2845294000580907,[-0.11574074074074074],[0.1962962962962963],[1],[0],[0],[2.2845294000580907],411.07275590021163,411.08821099996567,411.3886334998533,412.64005720056593,,,,,,,,,,Bradley_Zn,001,2024-11-13_10h31.09.822,Foreperiod_task,2024.2.1post4,60.01579622195129,2024-11-13 10h31.20.448948 -0800,
25,0,25,[-0.11574074074074074],[0.1962962962962963],[1],[0],[0],[2.317169399932027],,,,1,0,1,0,25,0,25,0,412.6561730997637,,,,,,,,,,,,412.64031510055065,412.6561730997637,0.0002741999924182892,412.6561730997637,412.6561730997637,412.8563643004745,414.6412137001753,414.6412137001753,414.6412137001753,414.65788449998945,414.95785299967974,2,normal,0.31716939993202686,[-0.11574074074074074],[0.1962962962962963],[1],[0],[0],[2.317169399932027],414.9580078003928,414.97414360009134,415.27500839997083,416.3267163997516,,,,,,,,,,Bradley_Zn,001,2024-11-13_10h31.09.822,Foreperiod_task,2024.2.1post4,60.01579622195129,2024-11-13 10h31.20.448948 -0800,
26,0,26,[-0.11574074074074074],[0.1962962962962963],[1],[0],[0],[2.3181245997548103],,,,1,0,1,0,26,0,26,0,416.34263109974563,,,,,,,,,,,,416.32701580040157,416.34263109974563,0.0003177998587489128,416.34263109974563,416.34263109974563,416.542895199731,418.3275391999632,418.3275391999632,418.3275391999632,418.34431090019643,418.6458951998502,2,normal,0.31812459975481033,[-0.11574074074074074],[0.1962962962962963],[1],[0],[0],[2.3181245997548103],418.6463681003079,418.6612531002611,418.9605000996962,420.33029029984027,,,,,,,,,,Bradley_Zn,001,2024-11-13_10h31.09.822,Foreperiod_task,2024.2.1post4,60.01579622195129,2024-11-13 10h31.20.448948 -0800,
27,0,27,[-0.11574074074074074],[0.1962962962962963],[1],[0],[0],[0.9334244001656771],,,,1,0,1,0,27,0,27,0,420.3463278999552,,,,,,,,,,,,420.33058230020106,420.3463278999552,0.00030250009149312973,420.3463278999552,420.3463278999552,420.5461657997221,420.8296894002706,420.8296894002706,420.8296894002706,420.84635270014405,421.26479330006987,0.5,normal,0.43342440016567707,[-0.11574074074074074],[0.1962962962962963],[1],[0],[0],[0.9334244001656771],421.265262699686,421.2800654005259,421.58024749998003,422.51517510041595,,,,,,,,,,Bradley_Zn,001,2024-11-13_10h31.09.822,Foreperiod_task,2024.2.1post4,60.01579622195129,2024-11-13 10h31.20.448948 -0800,
28,0,28,[-0.11574074074074074],[0.1962962962962963],[1],[0],[0],[2.2843511002138257],,,,1,0,1,0,28,0,28,0,422.53114739991724,,,,,,,,,,,,422.5155627997592,422.53114739991724,0.0004029003903269768,422.53114739991724,422.53114739991724,422.73122860025615,424.51576980017126,424.51576980017126,424.51576980017126,424.5328202005476,424.80078489985317,2,normal,0.2843511002138257,[-0.11574074074074074],[0.1962962962962963],[1],[0],[0],[2.2843511002138257],424.80133050028235,424.8163085002452,425.11652070004493,426.28521499969065,,,,,,,,,,Bradley_Zn,001,2024-11-13_10h31.09.822,Foreperiod_task,2024.2.1post4,60.01579622195129,2024-11-13 10h31.20.448948 -0800,
29,0,29,[-0.11574074074074074],[0.1962962962962963],[1],[0],[0],[2.301272800192237],,,,1,0,1,0,29,0,29,0,426.3008184004575,,,,,,,,,,,,426.2854875996709,426.3008184004575,0.0002933992072939873,426.3008184004575,426.3008184004575,426.5010708998889,428.2857772000134,428.2857772000134,428.2857772000134,428.3026010999456,428.58758150041103,2,normal,0.3012728001922369,[-0.11574074074074074],[0.1962962962962963],[1],[0],[0],[2.301272800192237],428.588042200543,428.60282600019127,428.90305300056934,430.10479160025716,,,,,,,,,,Bradley_Zn,001,2024-11-13_10h31.09.822,Foreperiod_task,2024.2.1post4,60.01579622195129,2024-11-13 10h31.20.448948 -0800,
30,0,30,[-0.11574074074074074],[0.1962962962962963],[1],[0],[0],[0.8677334003150463],,,,1,0,1,0,30,0,30,0,430.12043880019337,,,,,,,,,,,,430.1050529005006,430.12043880019337,0.00027959980070590973,430.12043880019337,430.12043880019337,430.32085630018264,430.6044244002551,430.6044244002551,430.6044244002551,430.6211299998686,430.97374210041016,0.5,normal,0.3677334003150463,[-0.11574074074074074],[0.1962962962962963],[1],[0],[0],[0.8677334003150463],430.97433170024306,430.9884111005813,431.2883850997314,432.25649350043386,,,,,,,,,,Bradley_Zn,001,2024-11-13_10h31.09.822,Foreperiod_task,2024.2.1post4,60.01579622195129,2024-11-13 10h31.20.448948 -0800,
31,0,31,[-0.11574074074074074],[0.1962962962962963],[1],[0],[0],[2.285197099670768],,,,1,0,1,0,31,0,31,0,432.27251910045743,,,,,,,,,,,,432.25676809996367,432.27251910045743,0.00029090046882629395,432.27251910045743,432.27251910045743,432.47267729975283,434.2575329001993,434.2575329001993,434.2575329001993,434.2742331000045,434.5429237000644,2,normal,0.2851970996707678,[-0.11574074074074074],[0.1962962962962963],[1],[0],[0],[2.285197099670768],434.5435774996877,434.55799019988626,434.85815460048616,436.12634740024805,,,,,,,,,,Bradley_Zn,001,2024-11-13_10h31.09.822,Foreperiod_task,2024.2.1post4,60.01579622195129,2024-11-13 10h31.20.448948 -0800,
32,0,32,[-0.11574074074074074],[0.1962962962962963],[1],[0],[0],[0.8508085999637842],,,,1,0,1,0,32,0,32,0,436.14239190053195,,,,,,,,,,,,436.12656630016863,436.14239190053195,0.00023240037262439728,436.14239190053195,436.14239190053195,436.342643099837,436.62613180000335,436.62613180000335,436.62613180000335,436.6428581997752,436.97824340034276,0.5,normal,0.3508085999637842,[-0.11574074074074074],[0.1962962962962963],[1],[0],[0],[0.8508085999637842],436.9789046999067,436.99320019967854,437.29301900044084,438.34451450034976,,,,,,,,,,Bradley_Zn,001,2024-11-13_10h31.09.822,Foreperiod_task,2024.2.1post4,60.01579622195129,2024-11-13 10h31.20.448948 -0800,
33,0,33,[-0.11574074074074074],[0.1962962962962963],[1],[0],[0],[2.335461100563407],,,,1,0,1,0,33,0,33,0,438.36035170033574,,,,,,,,,,,,438.3447123002261,438.36035170033574,0.00019330065697431564,438.36035170033574,438.36035170033574,438.5614147000015,440.34591590054333,440.34591590054333,440.34591590054333,440.3625341001898,440.68083480000496,2,normal,0.33546110056340694,[-0.11574074074074074],[0.1962962962962963],[1],[0],[0],[2.335461100563407],440.6813505003229,440.6962430998683,440.99639850016683,442.0981058003381,,,,,,,,,,Bradley_Zn,001,2024-11-13_10h31.09.822,Foreperiod_task,2024.2.1post4,60.01579622195129,2024-11-13 10h31.20.448948 -0800,
34,0,34,[-0.11574074074074074],[0.1962962962962963],[1],[0],[0],[0.8669361006468534],,,,1,0,1,0,34,0,34,0,442.1140948003158,,,,,,,,,,,,442.0983830001205,442.1140948003158,0.0002928003668785095,442.1140948003158,442.1140948003158,442.31439319998026,442.59770449995995,442.59770449995995,442.59770449995995,442.6144730001688,442.9661240996793,0.5,normal,0.36693610064685345,[-0.11574074074074074],[0.1962962962962963],[1],[0],[0],[0.8669361006468534],442.96664629969746,442.98150479979813,443.281694999896,444.16637060046196,,,,,,,,,,Bradley_Zn,001,2024-11-13_10h31.09.822,Foreperiod_task,2024.2.1post4,60.01579622195129,2024-11-13 10h31.20.448948 -0800,
35,0,35,[-0.11574074074074074],[0.1962962962962963],[1],[0],[0],[0.8337890999391675],,,,1,0,1,0,35,0,35,0,444.1824550004676,,,,,,,,,,,,444.166648699902,444.1824550004676,0.0002998998388648033,444.1824550004676,444.1824550004676,444.38276419974864,444.6662149000913,444.6662149000913,444.6662149000913,444.6819984000176,445.0014057001099,0.5,normal,0.3337890999391675,[-0.11574074074074074],[0.1962962962962963],[1],[0],[0],[0.8337890999391675],445.001914399676,445.0164478998631,445.3166648996994,446.56866800040007,,,,,,,,,,Bradley_Zn,001,2024-11-13_10h31.09.822,Foreperiod_task,2024.2.1post4,60.01579622195129,2024-11-13 10h31.20.448948 -0800,
36,0,36,[-0.11574074074074074],[0.1962962962962963],[1],[0],[0],[2.284596800804138],,,,1,0,1,0,36,0,36,0,446.5844197003171,,,,,,,,,,,,446.56895880028605,446.5844197003171,0.00031609926372766495,446.5844197003171,446.5844197003171,446.7845579003915,448.56951200030744,448.56951200030744,448.56951200030744,448.586103300564,448.85437570046633,2,normal,0.2845968008041382,[-0.11574074074074074],[0.1962962962962963],[1],[0],[0],[2.284596800804138],448.85487639997154,448.8697047000751,449.1698567997664,450.3883316004649,,,,,,,,,,Bradley_Zn,001,2024-11-13_10h31.09.822,Foreperiod_task,2024.2.1post4,60.01579622195129,2024-11-13 10h31.20.448948 -0800,
37,0,37,[-0.11574074074074074],[0.1962962962962963],[1],[0],[0],[2.251223700121045],,,,1,0,1,0,37,0,37,0,450.4042066996917,,,,,,,,,,,,450.38860180042684,450.4042066996917,0.0002891998738050461,450.4042066996917,450.4042066996917,450.60427680052817,452.3893104000017,452.3893104000017,452.3893104000017,452.4059595996514,452.6405854001641,2,normal,0.2512237001210451,[-0.11574074074074074],[0.1962962962962963],[1],[0],[0],[2.251223700121045],452.64102130010724,452.6561117004603,452.95634520053864,453.9241653997451,,,,,,,,,,Bradley_Zn,001,2024-11-13_10h31.09.822,Foreperiod_task,2024.2.1post4,60.01579622195129,2024-11-13 10h31.20.448948 -0800,
38,0,38,[-0.11574074074074074],[0.1962962962962963],[1],[0],[0],[0.8009417001157999],,,,1,0,1,0,38,0,38,0,453.9404945001006,,,,,,,,,,,,453.92436440009624,453.9404945001006,0.00019200053066015244,453.9404945001006,453.9404945001006,454.1404900001362,454.4242647998035,454.4242647998035,454.4242647998035,454.4409721996635,454.72603330016136,0.5,normal,0.3009417001157999,[-0.11574074074074074],[0.1962962962962963],[1],[0],[0],[0.8009417001157999],454.7264443002641,454.74129380006343,455.0415265997872,456.12644760031253,,,,,,,,,,Bradley_Zn,001,2024-11-13_10h31.09.822,Foreperiod_task,2024.2.1post4,60.01579622195129,2024-11-13 10h31.20.448948 -0800,
39,0,39,[-0.11574074074074074],[0.1962962962962963],[1],[0],[0],[0.8004992995411158],,,,1,0,1,0,39,0,39,0,456.14248189982027,,,,,,,,,,,,456.1266906000674,456.14248189982027,0.0002597002312541008,456.14248189982027,456.14248189982027,456.34270920045674,456.6261136997491,456.6261136997491,456.6261136997491,456.6428070003167,456.9279559003189,0.5,normal,0.30049929954111576,[-0.11574074074074074],[0.1962962962962963],[1],[0],[0],[0.8004992995411158],456.92850599996746,456.9431319003925,457.24313709978014,458.2781710997224,,,,,,,,,,Bradley_Zn,001,2024-11-13_10h31.09.822,Foreperiod_task,2024.2.1post4,60.01579622195129,2024-11-13 10h31.20.448948 -0800,
40,0,40,[-0.11574074074074074],[0.1962962962962963],[1],[0],[0],[0.8002514000982046],,,,1,0,1,0,40,0,40,0,458.2941592000425,,,,,,,,,,,,458.2784470003098,458.2941592000425,0.0002944003790616989,458.2941592000425,458.2941592000425,458.4942819997668,458.7780625997111,458.7780625997111,458.7780625997111,458.7946731997654,459.0795542001724,0.5,normal,0.3002514000982046,[-0.11574074074074074],[0.1962962962962963],[1],[0],[0],[0.8002514000982046],459.0800224998966,459.0949525004253,459.39512560050935,460.7133865002543,,,,,,,,,,Bradley_Zn,001,2024-11-13_10h31.09.822,Foreperiod_task,2024.2.1post4,60.01579622195129,2024-11-13 10h31.20.448948 -0800,
41,0,41,[-0.11574074074074074],[0.1962962962962963],[1],[0],[0],[2.2854407001286745],,,,1,0,1,0,41,0,41,0,460.7294057002291,,,,,,,,,,,,460.7136700004339,460.7294057002291,0.0002987002953886986,460.7294057002291,460.7294057002291,460.9296578001231,462.7144955005497,462.7144955005497,462.7144955005497,462.7312187999487,463.0003059003502,2,normal,0.2854407001286745,[-0.11574074074074074],[0.1962962962962963],[1],[0],[0],[2.2854407001286745],463.00078789982945,463.0149685004726,463.3150807004422,464.5335291000083,,,,,,,,,,Bradley_Zn,001,2024-11-13_10h31.09.822,Foreperiod_task,2024.2.1post4,60.01579622195129,2024-11-13 10h31.20.448948 -0800,
42,0,42,[-0.11574074074074074],[0.1962962962962963],[1],[0],[0],[2.2846146002411842],,,,1,0,1,0,42,0,42,0,464.5494047999382,,,,,,,,,,,,464.53380380012095,464.5494047999382,0.00028900057077407837,464.5494047999382,464.5494047999382,464.7492190003395,466.5343239000067,466.5343239000067,466.5343239000067,466.5510173998773,466.81914270017296,2,normal,0.28461460024118423,[-0.11574074074074074],[0.1962962962962963],[1],[0],[0],[2.2846146002411842],466.8195163998753,466.8345828996971,467.13424259983003,468.47007600031793,,,,,,,,,,Bradley_Zn,001,2024-11-13_10h31.09.822,Foreperiod_task,2024.2.1post4,60.01579622195129,2024-11-13 10h31.20.448948 -0800,
43,0,43,[-0.11574074074074074],[0.1962962962962963],[1],[0],[0],[0.850047399289906],,,,1,0,1,0,43,0,43,0,468.48587379977107,,,,,,,,,,,,468.47037100046873,468.48587379977107,0.0003076000139117241,468.48587379977107,468.48587379977107,468.6861140001565,468.9697500998154,468.9697500998154,468.9697500998154,468.9863440003246,469.3211978999898,0.5,normal,0.350047399289906,[-0.11574074074074074],[0.1962962962962963],[1],[0],[0],[0.850047399289906],469.32161690015346,469.3366371002048,469.63684180006385,470.9384965999052,,,,,,,,,,Bradley_Zn,001,2024-11-13_10h31.09.822,Foreperiod_task,2024.2.1post4,60.01579622195129,2024-11-13 10h31.20.448948 -0800,
44,0,44,[-0.11574074074074074],[0.1962962962962963],[1],[0],[0],[2.285097800195217],,,,1,0,1,0,44,0,44,0,470.95468890015036,,,,,,,,,,,,470.93875760026276,470.95468890015036,0.00029949937015771866,470.95468890015036,470.95468890015036,471.1543715996668,472.9396703001112,472.9396703001112,472.9396703001112,472.9563739001751,473.22464929986745,2,normal,0.28509780019521713,[-0.11574074074074074],[0.1962962962962963],[1],[0],[0],[2.285097800195217],473.2250284003094,473.23994959983975,473.54015410039574,474.50824650004506,,,,,,,,,,Bradley_Zn,001,2024-11-13_10h31.09.822,Foreperiod_task,2024.2.1post4,60.01579622195129,2024-11-13 10h31.20.448948 -0800,
45,0,45,[-0.11574074074074074],[0.1962962962962963],[1],[0],[0],[1.5345593998208642],,,,1,0,1,0,45,0,45,0,474.5244081001729,,,,,,,,,,,,474.50848089996725,474.5244081001729,0.00024370010942220688,474.5244081001729,474.5244081001729,474.72458619996905,475.775511899963,475.775511899963,475.775511899963,475.7921283999458,476.0437305998057,1.2633173790306178,surprise,0.2712420207902464,[-0.11574074074074074],[0.1962962962962963],[1],[0],[0],[1.5345593998208642],476.04410979989916,476.05892870016396,476.3591028004885,477.61090330034494,,,,,,,,,,Bradley_Zn,001,2024-11-13_10h31.09.822,Foreperiod_task,2024.2.1post4,60.01579622195129,2024-11-13 10h31.20.448948 -0800,
46,0,46,[-0.11574074074074074],[0.1962962962962963],[1],[0],[0],[0.8008835995569825],,,,1,0,1,0,46,0,46,0,477.6269113002345,,,,,,,,,,,,477.61117370054126,477.6269113002345,0.0002895006909966469,477.6269113002345,477.6269113002345,477.82787199970335,478.1106289001182,478.1106289001182,478.1106289001182,478.1269974000752,478.41310700029135,0.5,normal,0.3008835995569825,[-0.11574074074074074],[0.1962962962962963],[1],[0],[0],[0.8008835995569825],478.41366539988667,478.4276985004544,478.72781800013036,479.77963470015675,,,,,,,,,,Bradley_Zn,001,2024-11-13_10h31.09.822,Foreperiod_task,2024.2.1post4,60.01579622195129,2024-11-13 10h31.20.448948 -0800,
47,0,47,[-0.11574074074074074],[0.1962962962962963],[1],[0],[0],[1.533984899520874],,,,1,0,1,0,47,0,47,0,479.79552009981126,,,,,,,,,,,,479.7799086002633,479.79552009981126,0.00029380060732364655,479.79552009981126,479.79552009981126,479.9955935003236,480.9795757997781,480.9795757997781,480.9795757997781,480.99628710001707,481.31475250050426,1.1926224751961514,surprise,0.34136242432472264,[-0.11574074074074074],[0.1962962962962963],[1],[0],[0],[1.533984899520874],481.31517700012773,481.33009919989854,481.6302418997511,482.9657832002267,,,,,,,,,,Bradley_Zn,001,2024-11-13_10h31.09.822,Foreperiod_task,2024.2.1post4,60.01579622195129,2024-11-13 10h31.20.448948 -0800,
48,0,48,[-0.11574074074074074],[0.1962962962962963],[1],[0],[0],[0.8333208002150059],,,,1,0,1,0,48,0,48,0,482.98151780012995,,,,,,,,,,,,482.96609580051154,482.98151780012995,0.0003241002559661865,482.98151780012995,482.98151780012995,483.1815160997212,483.4651333000511,483.4651333000511,483.4651333000511,483.48218800034374,483.80021240003407,0.5,normal,0.3333208002150059,[-0.11574074074074074],[0.1962962962962963],[1],[0],[0],[0.8333208002150059],483.8006392996758,483.81541030015796,484.11558930017054,485.38402369990945,,,,,,,,,,Bradley_Zn,001,2024-11-13_10h31.09.822,Foreperiod_task,2024.2.1post4,60.01579622195129,2024-11-13 10h31.20.448948 -0800,
49,0,49,[-0.11574074074074074],[0.1962962962962963],[1],[0],[0],[2.284912799485028],,,,1,0,1,0,49,0,49,0,485.39998340047896,,,,,,,,,,,,485.3842997001484,485.39998340047896,0.0002955002710223198,485.39998340047896,485.39998340047896,485.6003159005195,487.3850811999291,487.3850811999291,487.3850811999291,487.4019801001996,487.6700609996915,2,normal,0.2849127994850278,[-0.11574074074074074],[0.1962962962962963],[1],[0],[0],[2.284912799485028],487.6704751998186,487.68526090029627,487.9855537004769,489.1861971002072,,,,,,,,,,Bradley_Zn,001,2024-11-13_10h31.09.822,Foreperiod_task,2024.2.1post4,60.01579622195129,2024-11-13 10h31.20.448948 -0800,
50,0,50,[-0.11574074074074074],[0.1962962962962963],[1],[0],[0],[0.8186368001624942],,,,1,0,1,0,50,0,50,0,489.20328109990805,,,,,,,,,,,,489.1863233996555,489.20328109990805,0.0001346999779343605,489.20328109990805,489.20328109990805,489.4034051001072,489.68704420048743,489.68704420048743,489.68704420048743,489.7036490999162,490.00578340049833,0.5,normal,0.3186368001624942,[-0.11574074074074074],[0.1962962962962963],[1],[0],[0],[0.8186368001624942],490.0062873996794,490.0205749999732,490.32084000017494,491.6058435002342,,,,,,,,,,Bradley_Zn,001,2024-11-13_10h31.09.822,Foreperiod_task,2024.2.1post4,60.01579622195129,2024-11-13 10h31.20.448948 -0800,
