thisN,thisTrialN,thisRepN,mouse.x,mouse.y,mouse.leftButton,mouse.midButton,mouse.rightButton,mouse.time,key_resp_5.keys,key_resp_5.rt,key_resp_5.duration,trials_3.thisRepN,trials_3.thisTrialN,trials_3.thisN,trials_3.thisIndex,trials_2.thisRepN,trials_2.thisTrialN,trials_2.thisN,trials_2.thisIndex,thisRow.t,notes,Welcome_Screen.started,Welcome_Text.started,mouse_2.started,Welcome_Screen.stopped,mouse_2.x,mouse_2.y,mouse_2.leftButton,mouse_2.midButton,mouse_2.rightButton,mouse_2.time,Trial_2.started,PLUS_FP.started,mouse.started,AVG.started,PLUS_FP.stopped,polygon.started,Trial_2.stopped,FixDur,Type,RT,trials_2.mouse.x,trials_2.mouse.y,trials_2.mouse.leftButton,trials_2.mouse.midButton,trials_2.mouse.rightButton,trials_2.mouse.time,Intertrial_Period.started,Photodiode_2.started,Intertrial_Period.stopped,Photodiode_2.stopped,BREAK.started,Instructions.started,key_resp_5.started,BREAK.stopped,trials_3.key_resp_5.keys,trials_3.key_resp_5.rt,trials_3.key_resp_5.duration,text.started,participant,session,date,expName,psychopyVersion,frameRate,expStart,
,,,,,,,,,,,,,,,,,,,,,,0.0029596006497740746,0.019348899833858013,0.0026913005858659744,9.011755600571632,[-0.03888888888888889],[0.11944444444444445],[1],[0],[0],[9.008058299310505],,,,,,,,,,,,,,,,,,,,,,,,,,,,,567241,001,2024-11-12_16h42.50.900,Foreperiod_task,2024.2.1post4,59.93346176876622,2024-11-12 16h42.55.329090 -0800,
0,0,0,[-0.03888888888888889],[0.11944444444444445],[1],[0],[0],[2.499884800054133],,,,0,0,0,0,0,0,0,0,9.026657099835575,,,,,,,,,,,,9.013185900636017,9.026657099835575,0.001310199499130249,9.026657099835575,11.011953200213611,11.011953200213611,11.513782899826765,2,normal,0.49988480005413294,[-0.03888888888888889],[0.11944444444444445],[1],[0],[0],[2.499884800054133],11.51422409992665,11.52917299978435,13.147795700468123,,,,,,,,,,567241,001,2024-11-12_16h42.50.900,Foreperiod_task,2024.2.1post4,59.93346176876622,2024-11-12 16h42.55.329090 -0800,
1,0,1,[-0.03888888888888889],[0.11944444444444445],[1],[0],[0],[2.3019008999690413],,,,0,0,0,0,1,0,1,0,13.163644100539386,,,,,,,,,,,,13.14810479991138,13.163644100539386,0.00031960010528564453,13.163644100539386,15.148762499913573,15.148762499913573,15.450985400006175,2,normal,0.30190089996904135,[-0.03888888888888889],[0.11944444444444445],[1],[0],[0],[2.3019008999690413],15.451486700214446,15.465951600112021,17.01789760030806,,,,,,,,,,567241,001,2024-11-12_16h42.50.900,Foreperiod_task,2024.2.1post4,59.93346176876622,2024-11-12 16h42.55.329090 -0800,
2,0,2,[-0.03796296296296296],[0.13148148148148148],[1],[0],[0],[1.283330900594592],,,,0,0,0,0,2,0,2,0,17.03435130044818,,,,,,,,,,,,17.018210100010037,17.03435130044818,0.000322599895298481,17.03435130044818,17.516591100022197,17.516591100022197,18.302311200648546,0.5,normal,0.7833309005945921,[-0.03796296296296296],[0.13148148148148148],[1],[0],[0],[1.283330900594592],18.302732300013304,18.31794199999422,19.98567910026759,18.81848520040512,,,,,,,,,567241,001,2024-11-12_16h42.50.900,Foreperiod_task,2024.2.1post4,59.93346176876622,2024-11-12 16h42.55.329090 -0800,
3,0,3,[-0.03796296296296296],[0.13148148148148148],[1],[0],[0],[0.8845482999458909],,,,0,0,0,0,3,0,3,0,20.002378500066698,,,,,,,,,,,,19.9857986997813,20.002378500066698,0.00011829938739538193,20.002378500066698,20.486713900230825,20.486713900230825,20.87103939987719,0.5,normal,0.3845482999458909,[-0.03796296296296296],[0.13148148148148148],[1],[0],[0],[0.8845482999458909],20.871446100063622,20.887044600211084,22.10528799984604,21.38656850066036,,,,,,,,,567241,001,2024-11-12_16h42.50.900,Foreperiod_task,2024.2.1post4,59.93346176876622,2024-11-12 16h42.55.329090 -0800,
4,0,4,[-0.03796296296296296],[0.13148148148148148],[1],[0],[0],[2.2839471995830536],,,,0,0,0,0,4,0,4,0,22.12119650002569,,,,,,,,,,,,22.105581800453365,22.12119650002569,0.0003249002620577812,22.12119650002569,24.106213900260627,24.106213900260627,24.39024810027331,2,normal,0.2839471995830536,[-0.03796296296296296],[0.13148148148148148],[1],[0],[0],[2.2839471995830536],24.39065119996667,24.406496400013566,26.07528949994594,,,,,,,,,,567241,001,2024-11-12_16h42.50.900,Foreperiod_task,2024.2.1post4,59.93346176876622,2024-11-12 16h42.55.329090 -0800,
5,0,5,[-0.03796296296296296],[0.13148148148148148],[1],[0],[0],[0.8170188004150987],,,,0,0,0,0,5,0,5,0,26.091223400086164,,,,,,,,,,,,26.075537499971688,26.091223400086164,0.0002529006451368332,26.091223400086164,26.57495340052992,26.57495340052992,26.89317180030048,0.5,normal,0.31701880041509867,[-0.03796296296296296],[0.13148148148148148],[1],[0],[0],[0.8170188004150987],26.89352780021727,26.908418499864638,28.461042700335383,27.409046799875796,,,,,,,,,567241,001,2024-11-12_16h42.50.900,Foreperiod_task,2024.2.1post4,59.93346176876622,2024-11-12 16h42.55.329090 -0800,
6,0,6,[-0.03796296296296296],[0.13148148148148148],[1],[0],[0],[0.7831285996362567],,,,0,0,0,0,6,0,6,0,28.476702500134706,,,,,,,,,,,,28.461309799924493,28.476702500134706,0.00027250032871961594,28.476702500134706,28.960200800560415,28.960200800560415,29.24515390023589,0.5,normal,0.2831285996362567,[-0.03796296296296296],[0.13148148148148148],[1],[0],[0],[0.7831285996362567],29.24552119988948,29.26056549977511,30.812566500157118,29.760996299795806,,,,,,,,,567241,001,2024-11-12_16h42.50.900,Foreperiod_task,2024.2.1post4,59.93346176876622,2024-11-12 16h42.55.329090 -0800,
7,0,7,[-0.03796296296296296],[0.13148148148148148],[1],[0],[0],[1.617153299972415],,,,0,0,0,0,7,0,7,0,30.828549100086093,,,,,,,,,,,,30.81284600030631,30.828549100086093,0.00028659962117671967,30.828549100086093,32.12981060054153,32.12981060054153,32.43055520020425,1.3073453343731922,surprise,0.30980796559922275,[-0.03796296296296296],[0.13148148148148148],[1],[0],[0],[1.617153299972415],32.43087610043585,32.44654260016978,33.91511780023575,33.76420550048351,,,,,,,,,567241,001,2024-11-12_16h42.50.900,Foreperiod_task,2024.2.1post4,59.93346176876622,2024-11-12 16h42.55.329090 -0800,
8,0,8,[-0.03796296296296296],[0.13148148148148148],[1],[0],[0],[0.9005245994776487],,,,0,0,0,0,8,0,8,0,33.931096400134265,,,,,,,,,,,,33.91539330035448,33.931096400134265,0.00028249993920326233,33.931096400134265,34.43160010036081,34.43160010036081,34.81656530033797,0.5,normal,0.40052459947764874,[-0.03796296296296296],[0.13148148148148148],[1],[0],[0],[0.9005245994776487],34.81691030040383,34.83191649988294,36.18354910053313,35.33225170057267,,,,,,,,,567241,001,2024-11-12_16h42.50.900,Foreperiod_task,2024.2.1post4,59.93346176876622,2024-11-12 16h42.55.329090 -0800,
9,0,9,[-0.03796296296296296],[0.13148148148148148],[1],[0],[0],[0.7835534000769258],,,,0,0,0,0,9,0,9,0,36.19954730011523,,,,,,,,,,,,36.18384450022131,36.19954730011523,0.0003033000975847244,36.19954730011523,36.683542099781334,36.683542099781334,36.968200200237334,0.5,normal,0.28355340007692575,[-0.03796296296296296],[0.13148148148148148],[1],[0],[0],[0.7835534000769258],36.968566100113094,36.983777900226414,38.40111520048231,37.48392250016332,,,,,,,,,567241,001,2024-11-12_16h42.50.900,Foreperiod_task,2024.2.1post4,59.93346176876622,2024-11-12 16h42.55.329090 -0800,
10,0,10,[-0.03796296296296296],[0.13148148148148148],[1],[0],[0],[2.2863799994811416],,,,0,0,0,0,10,0,10,0,38.41822540014982,,,,,,,,,,,,38.40126339998096,38.41822540014982,0.0001492006704211235,38.41822540014982,40.40279700048268,40.40279700048268,40.688287099823356,2,normal,0.28637999948114157,[-0.03796296296296296],[0.13148148148148148],[1],[0],[0],[2.2863799994811416],40.68876420054585,40.70338760036975,42.17222320009023,,,,,,,,,,567241,001,2024-11-12_16h42.50.900,Foreperiod_task,2024.2.1post4,59.93346176876622,2024-11-12 16h42.55.329090 -0800,
11,0,11,[-0.03796296296296296],[0.13148148148148148],[1],[0],[0],[2.301303799264133],,,,0,0,0,0,11,0,11,0,42.18798360042274,,,,,,,,,,,,42.17252460028976,42.18798360042274,0.00031669996678829193,42.18798360042274,44.17300259973854,44.17300259973854,44.47453640028834,2,normal,0.301303799264133,[-0.03796296296296296],[0.13148148148148148],[1],[0],[0],[2.301303799264133],44.47490049991757,44.48995039984584,46.15874610003084,,,,,,,,,,567241,001,2024-11-12_16h42.50.900,Foreperiod_task,2024.2.1post4,59.93346176876622,2024-11-12 16h42.55.329090 -0800,
12,0,12,[-0.03796296296296296],[0.13148148148148148],[1],[0],[0],[2.318585899658501],,,,0,0,0,0,12,0,12,0,46.17460499983281,,,,,,,,,,,,46.15904309973121,46.17460499983281,0.00030609965324401855,46.17460499983281,48.15962920058519,48.15962920058519,48.47853250056505,2,normal,0.31858589965850115,[-0.03796296296296296],[0.13148148148148148],[1],[0],[0],[2.318585899658501],48.47902970016003,48.49329200014472,50.02858250029385,,,,,,,,,,567241,001,2024-11-12_16h42.50.900,Foreperiod_task,2024.2.1post4,59.93346176876622,2024-11-12 16h42.55.329090 -0800,
13,0,13,[-0.03796296296296296],[0.13148148148148148],[1],[0],[0],[0.8336404003202915],,,,0,0,0,0,13,0,13,0,50.04452020023018,,,,,,,,,,,,50.028879600577056,50.04452020023018,0.0003017997369170189,50.04452020023018,50.52818110026419,50.52818110026419,50.86331250052899,0.5,normal,0.3336404003202915,[-0.03796296296296296],[0.13148148148148148],[1],[0],[0],[0.8336404003202915],50.86389350052923,50.87855590041727,52.147266800515354,51.37885200046003,,,,,,,,,567241,001,2024-11-12_16h42.50.900,Foreperiod_task,2024.2.1post4,59.93346176876622,2024-11-12 16h42.55.329090 -0800,
14,0,14,[-0.03796296296296296],[0.13148148148148148],[1],[0],[0],[2.2668917002156377],,,,0,0,0,0,14,0,14,0,52.16283650044352,,,,,,,,,,,,52.14757280051708,52.16283650044352,0.00030460022389888763,52.16283650044352,54.14787620026618,54.14787620026618,54.41503590065986,2,normal,0.2668917002156377,[-0.03796296296296296],[0.13148148148148148],[1],[0],[0],[2.2668917002156377],54.41533620003611,54.4316560998559,56.033568900078535,,,,,,,,,,567241,001,2024-11-12_16h42.50.900,Foreperiod_task,2024.2.1post4,59.93346176876622,2024-11-12 16h42.55.329090 -0800,
15,0,15,[-0.03796296296296296],[0.13148148148148148],[1],[0],[0],[2.335029900074005],,,,0,0,0,0,15,0,15,0,56.04967540036887,,,,,,,,,,,,56.03388410061598,56.04967540036887,0.00030869990587234497,56.04967540036887,58.03478980064392,58.03478980064392,58.36964670009911,2,normal,0.3350299000740051,[-0.03796296296296296],[0.13148148148148148],[1],[0],[0],[2.335029900074005],58.37004309985787,58.383731899783015,59.6029978999868,,,,,,,,,,567241,001,2024-11-12_16h42.50.900,Foreperiod_task,2024.2.1post4,59.93346176876622,2024-11-12 16h42.55.329090 -0800,
16,0,16,[-0.03796296296296296],[0.13148148148148148],[1],[0],[0],[0.8838841002434492],,,,0,0,0,0,16,0,16,0,59.61905140057206,,,,,,,,,,,,59.60331569984555,59.61905140057206,0.0003229007124900818,59.61905140057206,60.10272770002484,60.10272770002484,60.48793020006269,0.5,normal,0.3838841002434492,[-0.03796296296296296],[0.13148148148148148],[1],[0],[0],[0.8838841002434492],60.48836890049279,60.50314559973776,61.87166559975594,61.00365660060197,,,,,,,,,567241,001,2024-11-12_16h42.50.900,Foreperiod_task,2024.2.1post4,59.93346176876622,2024-11-12 16h42.55.329090 -0800,
17,0,17,[-0.03796296296296296],[0.13148148148148148],[1],[0],[0],[0.7836193004623055],,,,0,0,0,0,17,0,17,0,61.88725350052118,,,,,,,,,,,,61.87193880043924,61.88725350052118,0.00028060004115104675,61.88725350052118,62.37134790048003,62.37134790048003,62.656265100464225,0.5,normal,0.28361930046230555,[-0.03796296296296296],[0.13148148148148148],[1],[0],[0],[0.7836193004623055],62.65666940063238,62.67167969979346,63.93964800052345,63.171951400116086,,,,,,,,,567241,001,2024-11-12_16h42.50.900,Foreperiod_task,2024.2.1post4,59.93346176876622,2024-11-12 16h42.55.329090 -0800,
18,0,18,[-0.03796296296296296],[0.13148148148148148],[1],[0],[0],[1.5347192008048296],,,,0,0,0,0,18,0,18,0,63.95592979993671,,,,,,,,,,,,63.93989880010486,63.95592979993671,0.00025899987667798996,63.95592979993671,65.12363000027835,65.12363000027835,65.47526870016009,1.1798772955575838,surprise,0.3548419052472458,[-0.03796296296296296],[0.13148148148148148],[1],[0],[0],[1.5347192008048296],65.47581920027733,65.49077699985355,67.00911760050803,66.6749087003991,,,,,,,,,567241,001,2024-11-12_16h42.50.900,Foreperiod_task,2024.2.1post4,59.93346176876622,2024-11-12 16h42.55.329090 -0800,
19,0,19,[-0.03796296296296296],[0.13148148148148148],[1],[0],[0],[2.4529585000127554],,,,0,0,0,0,19,0,19,0,67.02533510047942,,,,,,,,,,,,67.00934960041195,67.02533510047942,0.00023640040308237076,67.02533510047942,69.01010449975729,69.01010449975729,69.46319979988039,2,normal,0.4529585000127554,[-0.03796296296296296],[0.13148148148148148],[1],[0],[0],[2.4529585000127554],69.46375219989568,69.47723670024425,70.76218739990145,,,,,,,,,,567241,001,2024-11-12_16h42.50.900,Foreperiod_task,2024.2.1post4,59.93346176876622,2024-11-12 16h42.55.329090 -0800,
20,0,20,[-0.03796296296296296],[0.13148148148148148],[1],[0],[0],[1.1177881006151438],,,,0,0,0,0,20,0,20,0,70.77855890057981,,,,,,,,,,,,70.7624328006059,70.77855890057981,0.00025250017642974854,70.77855890057981,71.26207820046693,71.26207820046693,71.88125010021031,0.5,normal,0.6177881006151438,[-0.03796296296296296],[0.13148148148148148],[1],[0],[0],[1.1177881006151438],71.88187110051513,71.89593419991434,73.41352189984173,72.39627380017191,,,,,,,,,567241,001,2024-11-12_16h42.50.900,Foreperiod_task,2024.2.1post4,59.93346176876622,2024-11-12 16h42.55.329090 -0800,
21,0,21,[-0.03796296296296296],[0.13148148148148148],[1],[0],[0],[2.519735200330615],,,,0,0,0,0,21,0,21,0,73.42994000017643,,,,,,,,,,,,73.41363279987127,73.42994000017643,0.00011499971151351929,73.42994000017643,75.41561970021576,75.41561970021576,75.93407810013741,2,normal,0.519735200330615,[-0.03796296296296296],[0.13148148148148148],[1],[0],[0],[2.519735200330615],75.93448510020971,75.94939959980547,77.51800950057805,,,,,,,,,,567241,001,2024-11-12_16h42.50.900,Foreperiod_task,2024.2.1post4,59.93346176876622,2024-11-12 16h42.55.329090 -0800,
22,0,22,[-0.03796296296296296],[0.13148148148148148],[1],[0],[0],[1.117390999570489],,,,0,0,0,0,22,0,22,0,77.53397000022233,,,,,,,,,,,,77.51830680016428,77.53397000022233,0.00030509941279888153,77.53397000022233,78.01774040050805,78.01774040050805,78.63652150053531,0.5,normal,0.6173909995704889,[-0.03796296296296296],[0.13148148148148148],[1],[0],[0],[1.117390999570489],78.63695240020752,78.65154710039496,80.08645110018551,79.15192299988121,,,,,,,,,567241,001,2024-11-12_16h42.50.900,Foreperiod_task,2024.2.1post4,59.93346176876622,2024-11-12 16h42.55.329090 -0800,
23,0,23,[-0.03796296296296296],[0.13148148148148148],[1],[0],[0],[2.4190399991348386],,,,0,0,0,0,23,0,23,0,80.10259800031781,,,,,,,,,,,,80.08668990060687,80.10259800031781,0.0002474002540111542,80.10259800031781,82.08773180004209,82.08773180004209,82.50662169978023,2,normal,0.4190399991348386,[-0.03796296296296296],[0.13148148148148148],[1],[0],[0],[2.4190399991348386],82.5072258003056,82.52160960063338,83.90684350021183,,,,,,,,,,567241,001,2024-11-12_16h42.50.900,Foreperiod_task,2024.2.1post4,59.93346176876622,2024-11-12 16h42.55.329090 -0800,
24,0,24,[-0.03796296296296296],[0.13148148148148148],[1],[0],[0],[2.301542400382459],,,,0,0,0,0,24,0,24,0,83.92259369976819,,,,,,,,,,,,83.90717530064285,83.92259369976819,0.0003399001434445381,83.92259369976819,85.90769590064883,85.90769590064883,86.20962509978563,2,normal,0.30154240038245916,[-0.03796296296296296],[0.13148148148148148],[1],[0],[0],[2.301542400382459],86.21024189982563,86.22469499986619,87.77689869981259,,,,,,,,,,567241,001,2024-11-12_16h42.50.900,Foreperiod_task,2024.2.1post4,59.93346176876622,2024-11-12 16h42.55.329090 -0800,
25,0,25,[-0.03796296296296296],[0.13148148148148148],[1],[0],[0],[0.8338053002953529],,,,0,0,0,0,25,0,25,0,87.79271740000695,,,,,,,,,,,,87.7772075003013,87.79271740000695,0.00030750036239624023,87.79271740000695,88.2762994999066,88.2762994999066,88.61189190018922,0.5,normal,0.33380530029535294,[-0.03796296296296296],[0.13148148148148148],[1],[0],[0],[0.8338053002953529],88.61248510051519,88.62671050056815,89.92839939985424,89.12598340027034,,,,,,,,,567241,001,2024-11-12_16h42.50.900,Foreperiod_task,2024.2.1post4,59.93346176876622,2024-11-12 16h42.55.329090 -0800,
26,0,26,[-0.03796296296296296],[0.13148148148148148],[1],[0],[0],[1.4173635002225637],,,,0,0,0,0,26,0,26,0,89.94425399973989,,,,,,,,,,,,89.92867900058627,89.94425399973989,0.0002858005464076996,89.94425399973989,91.02860950026661,91.02860950026661,91.34677710011601,1.0879298837836398,surprise,0.329433616438924,[-0.03796296296296296],[0.13148148148148148],[1],[0],[0],[1.4173635002225637],91.34724779985845,91.36233420018107,92.61406060028821,92.46313910000026,,,,,,,,,567241,001,2024-11-12_16h42.50.900,Foreperiod_task,2024.2.1post4,59.93346176876622,2024-11-12 16h42.55.329090 -0800,
27,0,27,[-0.03796296296296296],[0.13148148148148148],[1],[0],[0],[2.451731700450182],,,,0,0,0,0,27,0,27,0,92.62974790018052,,,,,,,,,,,,92.61435690056533,92.62974790018052,0.0002984004095196724,92.62974790018052,94.61478960048407,94.61478960048407,95.0669152000919,2,normal,0.45173170045018196,[-0.03796296296296296],[0.13148148148148148],[1],[0],[0],[2.451731700450182],95.06738669984043,95.0819618999958,96.49919589981437,,,,,,,,,,567241,001,2024-11-12_16h42.50.900,Foreperiod_task,2024.2.1post4,59.93346176876622,2024-11-12 16h42.55.329090 -0800,
28,0,28,[-0.03796296296296296],[0.13148148148148148],[1],[0],[0],[2.2863884000107646],,,,0,0,0,0,28,0,28,0,96.51609870046377,,,,,,,,,,,,96.49930660054088,96.51609870046377,0.00011140014976263046,96.51609870046377,98.50143930036575,98.50143930036575,98.78624759986997,2,normal,0.2863884000107646,[-0.03796296296296296],[0.13148148148148148],[1],[0],[0],[2.2863884000107646],98.78667860012501,98.80176809988916,100.42046579997987,,,,,,,,,,567241,001,2024-11-12_16h42.50.900,Foreperiod_task,2024.2.1post4,59.93346176876622,2024-11-12 16h42.55.329090 -0800,
29,0,29,[-0.03796296296296296],[0.13148148148148148],[1],[0],[0],[2.2847956996411085],,,,0,0,0,0,29,0,29,0,100.43644500058144,,,,,,,,,,,,100.42075060028583,100.43644500058144,0.000290699303150177,100.43644500058144,102.42126569990069,102.42126569990069,102.70630010031164,2,normal,0.2847956996411085,[-0.03796296296296296],[0.13148148148148148],[1],[0],[0],[2.2847956996411085],102.7067892998457,102.72161979973316,103.92336549982429,,,,,,,,,,567241,001,2024-11-12_16h42.50.900,Foreperiod_task,2024.2.1post4,59.93346176876622,2024-11-12 16h42.55.329090 -0800,
30,0,30,[-0.03796296296296296],[0.13148148148148148],[1],[0],[0],[2.3674812000244856],,,,0,0,0,0,30,0,30,0,103.93925940059125,,,,,,,,,,,,103.92364190053195,103.93925940059125,0.00028479937463998795,103.93925940059125,105.92425900045782,105.92425900045782,106.29170060064644,2,normal,0.3674812000244856,[-0.03796296296296296],[0.13148148148148148],[1],[0],[0],[2.3674812000244856],106.2920732004568,106.30794710014015,107.92661560047418,,,,,,,,,,567241,001,2024-11-12_16h42.50.900,Foreperiod_task,2024.2.1post4,59.93346176876622,2024-11-12 16h42.55.329090 -0800,
31,0,31,[-0.03796296296296296],[0.13148148148148148],[1],[0],[0],[0.8169747004285455],,,,0,0,0,0,31,0,31,0,107.94252649974078,,,,,,,,,,,,107.92692050058395,107.94252649974078,0.0003168005496263504,107.94252649974078,108.42647020053118,108.42647020053118,108.74499659985304,0.5,normal,0.3169747004285455,[-0.03796296296296296],[0.13148148148148148],[1],[0],[0],[0.8169747004285455],108.74549750052392,108.75993769988418,110.3785640001297,109.26046350039542,,,,,,,,,567241,001,2024-11-12_16h42.50.900,Foreperiod_task,2024.2.1post4,59.93346176876622,2024-11-12 16h42.55.329090 -0800,
32,0,32,[-0.03796296296296296],[0.13148148148148148],[1],[0],[0],[2.3019570000469685],,,,0,0,0,0,32,0,32,0,110.39459320064634,,,,,,,,,,,,110.3788377000019,110.39459320064634,0.00028089992702007294,110.39459320064634,112.37970430031419,112.37970430031419,112.68168960046023,2,normal,0.30195700004696846,[-0.03796296296296296],[0.13148148148148148],[1],[0],[0],[2.3019570000469685],112.68225240055472,112.6964378003031,114.19839960057288,,,,,,,,,,567241,001,2024-11-12_16h42.50.900,Foreperiod_task,2024.2.1post4,59.93346176876622,2024-11-12 16h42.55.329090 -0800,
33,0,33,[-0.03796296296296296],[0.13148148148148148],[1],[0],[0],[2.284963699989021],,,,0,0,0,0,33,0,33,0,114.21446770057082,,,,,,,,,,,,114.19866740051657,114.21446770057082,0.0002749999985098839,114.21446770057082,116.19951670058072,116.19951670058072,116.4844765001908,2,normal,0.2849636999890208,[-0.03796296296296296],[0.13148148148148148],[1],[0],[0],[2.284963699989021],116.4848651997745,116.49964450020343,117.85158720053732,,,,,,,,,,567241,001,2024-11-12_16h42.50.900,Foreperiod_task,2024.2.1post4,59.93346176876622,2024-11-12 16h42.55.329090 -0800,
34,0,34,[-0.03796296296296296],[0.13148148148148148],[1],[0],[0],[0.8337137000635266],,,,0,0,0,0,34,0,34,0,117.86752420011908,,,,,,,,,,,,117.85182960052043,117.86752420011908,0.00023909937590360641,117.86752420011908,118.35118759982288,118.35118759982288,118.68634069990367,0.5,normal,0.33371370006352663,[-0.03796296296296296],[0.13148148148148148],[1],[0],[0],[0.8337137000635266],118.68677680008113,118.70145160052925,120.33692390006036,119.201878500171,,,,,,,,,567241,001,2024-11-12_16h42.50.900,Foreperiod_task,2024.2.1post4,59.93346176876622,2024-11-12 16h42.55.329090 -0800,
35,0,35,[-0.03796296296296296],[0.13148148148148148],[1],[0],[0],[2.2682773005217314],,,,0,0,0,0,35,0,35,0,120.35309080034494,,,,,,,,,,,,120.33721520006657,120.35309080034494,0.0002959994599223137,120.35309080034494,122.33796560019255,122.33796560019255,122.60619609989226,2,normal,0.2682773005217314,[-0.03796296296296296],[0.13148148148148148],[1],[0],[0],[2.2682773005217314],122.6066880999133,122.62148070055991,124.10656220000237,,,,,,,,,,567241,001,2024-11-12_16h42.50.900,Foreperiod_task,2024.2.1post4,59.93346176876622,2024-11-12 16h42.55.329090 -0800,
36,0,36,[-0.03796296296296296],[0.13148148148148148],[1],[0],[0],[0.8165100002661347],,,,0,0,0,0,36,0,36,0,124.12271760031581,,,,,,,,,,,,124.1068075997755,124.12271760031581,0.0002966001629829407,124.12271760031581,124.60638319980353,124.60638319980353,124.92383760027587,0.5,normal,0.31651000026613474,[-0.03796296296296296],[0.13148148148148148],[1],[0],[0],[0.8165100002661347],124.92405179981142,124.94030509982258,126.3752712002024,125.44096180051565,,,,,,,,,567241,001,2024-11-12_16h42.50.900,Foreperiod_task,2024.2.1post4,59.93346176876622,2024-11-12 16h42.55.329090 -0800,
37,0,37,[-0.03796296296296296],[0.13148148148148148],[1],[0],[0],[2.401737299747765],,,,0,0,0,0,37,0,37,0,126.39094839990139,,,,,,,,,,,,126.37557619996369,126.39094839990139,0.0003095995634794235,126.39094839990139,128.3763851998374,128.3763851998374,128.77850889973342,2,normal,0.40173729974776506,[-0.03796296296296296],[0.13148148148148148],[1],[0],[0],[2.401737299747765],128.7790031004697,128.79338639974594,130.14512739982456,,,,,,,,,,567241,001,2024-11-12_16h42.50.900,Foreperiod_task,2024.2.1post4,59.93346176876622,2024-11-12 16h42.55.329090 -0800,
38,0,38,[-0.03796296296296296],[0.13148148148148148],[1],[0],[0],[0.883644999936223],,,,0,0,0,0,38,0,38,0,130.16124740056694,,,,,,,,,,,,130.14542779978365,130.16124740056694,0.00030739977955818176,130.16124740056694,130.6448860997334,130.6448860997334,131.02971650008112,0.5,normal,0.38364499993622303,[-0.03796296296296296],[0.13148148148148148],[1],[0],[0],[0.883644999936223],131.03005560021847,131.04495090059936,132.31359679996967,131.545458400622,,,,,,,,,567241,001,2024-11-12_16h42.50.900,Foreperiod_task,2024.2.1post4,59.93346176876622,2024-11-12 16h42.55.329090 -0800,
39,0,39,[-0.03796296296296296],[0.13148148148148148],[1],[0],[0],[2.2845946000888944],,,,0,0,0,0,39,0,39,0,132.32953540049493,,,,,,,,,,,,132.31386870052665,132.32953540049493,0.0002768002450466156,132.32953540049493,134.31460889987648,134.31460889987648,134.59896160010248,2,normal,0.28459460008889437,[-0.03796296296296296],[0.13148148148148148],[1],[0],[0],[2.2845946000888944],134.5992483003065,134.61455690022558,136.16689429990947,,,,,,,,,,567241,001,2024-11-12_16h42.50.900,Foreperiod_task,2024.2.1post4,59.93346176876622,2024-11-12 16h42.55.329090 -0800,
40,0,40,[-0.03796296296296296],[0.13148148148148148],[1],[0],[0],[1.7179803000763059],,,,0,0,0,0,40,0,40,0,136.18237090017647,,,,,,,,,,,,136.16716280020773,136.18237090017647,0.00026640016585588455,136.18237090017647,137.60076270066202,137.60076270066202,137.88612300064415,1.4322529933235053,surprise,0.28572730675280056,[-0.03796296296296296],[0.13148148148148148],[1],[0],[0],[1.7179803000763059],137.88676770031452,137.90091850049794,139.26957949995995,,,,,,,,,,567241,001,2024-11-12_16h42.50.900,Foreperiod_task,2024.2.1post4,59.93346176876622,2024-11-12 16h42.55.329090 -0800,
41,0,41,[-0.03796296296296296],[0.13148148148148148],[1],[0],[0],[0.9504854008555412],,,,0,0,0,0,41,0,41,0,139.28512889984995,,,,,,,,,,,,139.26973799988627,139.28512889984995,0.0001618005335330963,139.28512889984995,139.76921529974788,139.76921529974788,140.2208890002221,0.5,normal,0.45048540085554123,[-0.03796296296296296],[0.13148148148148148],[1],[0],[0],[0.9504854008555412],140.22131890058517,140.23616020008922,141.6716213999316,140.73687820043415,,,,,,,,,567241,001,2024-11-12_16h42.50.900,Foreperiod_task,2024.2.1post4,59.93346176876622,2024-11-12 16h42.55.329090 -0800,
42,0,42,[-0.03796296296296296],[0.13148148148148148],[1],[0],[0],[2.3012795001268387],,,,0,0,0,0,42,0,42,0,141.68710490036756,,,,,,,,,,,,141.67195670027286,141.68710490036756,0.00033850036561489105,141.68710490036756,143.67229710053653,143.67229710053653,143.97407520003617,2,normal,0.3012795001268387,[-0.03796296296296296],[0.13148148148148148],[1],[0],[0],[2.3012795001268387],143.9744798997417,143.98932410031557,145.45802049990743,,,,,,,,,,567241,001,2024-11-12_16h42.50.900,Foreperiod_task,2024.2.1post4,59.93346176876622,2024-11-12 16h42.55.329090 -0800,
43,0,43,[-0.03796296296296296],[0.13148148148148148],[1],[0],[0],[0.9670933997258544],,,,0,0,0,0,43,0,43,0,145.47386190015823,,,,,,,,,,,,145.45832230057567,145.47386190015823,0.00030960049480199814,145.47386190015823,145.9577232999727,145.9577232999727,146.42616240028292,0.5,normal,0.4670933997258544,[-0.03796296296296296],[0.13148148148148148],[1],[0],[0],[0.9670933997258544],146.42659370042384,146.4413047004491,148.04409010056406,146.94171680044383,,,,,,,,,567241,001,2024-11-12_16h42.50.900,Foreperiod_task,2024.2.1post4,59.93346176876622,2024-11-12 16h42.55.329090 -0800,
44,0,44,[-0.03796296296296296],[0.13148148148148148],[1],[0],[0],[0.9164585005491972],,,,0,0,0,0,44,0,44,0,148.05938690062612,,,,,,,,,,,,148.0443836003542,148.05938690062612,0.0003033000975847244,148.05938690062612,148.55987310037017,148.55987310037017,148.96164260059595,0.5,normal,0.4164585005491972,[-0.03796296296296296],[0.13148148148148148],[1],[0],[0],[0.9164585005491972],148.9620812004432,148.9766535004601,150.19521229993552,149.477199700661,,,,,,,,,567241,001,2024-11-12_16h42.50.900,Foreperiod_task,2024.2.1post4,59.93346176876622,2024-11-12 16h42.55.329090 -0800,
45,0,45,[-0.03796296296296296],[0.13148148148148148],[1],[0],[0],[0.833607199601829],,,,0,0,0,0,45,0,45,0,150.21110269986093,,,,,,,,,,,,150.19555009994656,150.21110269986093,0.00033430010080337524,150.21110269986093,150.69510430004448,150.69510430004448,151.03003619983792,0.5,normal,0.33360719960182905,[-0.03796296296296296],[0.13148148148148148],[1],[0],[0],[0.833607199601829],151.03046790044755,151.04520480055362,152.497111200355,151.5455996003002,,,,,,,,,567241,001,2024-11-12_16h42.50.900,Foreperiod_task,2024.2.1post4,59.93346176876622,2024-11-12 16h42.55.329090 -0800,
46,0,46,[-0.03796296296296296],[0.13148148148148148],[1],[0],[0],[2.300567999482155],,,,0,0,0,0,46,0,46,0,152.51310180034488,,,,,,,,,,,,152.49743450060487,152.51310180034488,0.0003223000094294548,152.51310180034488,154.49780130013824,154.49780130013824,154.79863550048321,2,normal,0.30056799948215485,[-0.03796296296296296],[0.13148148148148148],[1],[0],[0],[2.300567999482155],154.79907060042024,154.8148910002783,156.28376909997314,,,,,,,,,,567241,001,2024-11-12_16h42.50.900,Foreperiod_task,2024.2.1post4,59.93346176876622,2024-11-12 16h42.55.329090 -0800,
47,0,47,[-0.03796296296296296],[0.13148148148148148],[1],[0],[0],[0.9005482001230121],,,,0,0,0,0,47,0,47,0,156.2996020000428,,,,,,,,,,,,156.28405840042979,156.2996020000428,0.00028849951922893524,156.2996020000428,156.78333120048046,156.78333120048046,157.18553490005434,0.5,normal,0.40054820012301207,[-0.03796296296296296],[0.13148148148148148],[1],[0],[0],[0.9005482001230121],157.18608450051397,157.20029020030051,158.4020725004375,157.7001426005736,,,,,,,,,567241,001,2024-11-12_16h42.50.900,Foreperiod_task,2024.2.1post4,59.93346176876622,2024-11-12 16h42.55.329090 -0800,
48,0,48,[-0.03796296296296296],[0.13148148148148148],[1],[0],[0],[2.3180383993312716],,,,0,0,0,0,48,0,48,0,158.41792669985443,,,,,,,,,,,,158.4023496005684,158.41792669985443,0.00028380006551742554,158.41792669985443,160.40281290002167,160.40281290002167,160.7210616003722,2,normal,0.31803839933127165,[-0.03796296296296296],[0.13148148148148148],[1],[0],[0],[2.3180383993312716],160.72144920006394,160.73655309993774,162.23847710061818,,,,,,,,,,567241,001,2024-11-12_16h42.50.900,Foreperiod_task,2024.2.1post4,59.93346176876622,2024-11-12 16h42.55.329090 -0800,
49,0,49,[-0.03796296296296296],[0.13148148148148148],[1],[0],[0],[0.8835661998018622],,,,0,0,0,0,49,0,49,0,162.2545857001096,,,,,,,,,,,,162.23871260043234,162.2545857001096,0.0002430994063615799,162.2545857001096,162.73820170015097,162.73820170015097,163.1229073004797,0.5,normal,0.38356619980186224,[-0.03796296296296296],[0.13148148148148148],[1],[0],[0],[0.8835661998018622],163.1232587005943,163.1385310003534,164.49050580058247,163.63906779978424,,,,,,,,,567241,001,2024-11-12_16h42.50.900,Foreperiod_task,2024.2.1post4,59.93346176876622,2024-11-12 16h42.55.329090 -0800,
50,0,50,[-0.03796296296296296],[0.13148148148148148],[1],[0],[0],[1.0505740996450186],,,,0,0,0,0,50,0,50,0,164.5065446002409,,,,,,,,,,,,164.49080570042133,164.5065446002409,0.0003064991906285286,164.5065446002409,164.99002050049603,164.99002050049603,165.54217030014843,0.5,normal,0.5505740996450186,[-0.03796296296296296],[0.13148148148148148],[1],[0],[0],[1.0505740996450186],165.54257979989052,165.5574705004692,167.07590339984745,166.0576426004991,,,,,,,,,567241,001,2024-11-12_16h42.50.900,Foreperiod_task,2024.2.1post4,59.93346176876622,2024-11-12 16h42.55.329090 -0800,
51,0,51,[-0.03796296296296296],[0.13148148148148148],[1],[0],[0],[2.634469600394368],,,,0,0,0,0,51,0,51,0,167.0917229000479,,,,,,,,,,,,167.0762366000563,167.0917229000479,0.0003367997705936432,167.0917229000479,169.07663370016962,169.07663370016962,169.71129420027137,2,normal,0.6344696003943682,[-0.03796296296296296],[0.13148148148148148],[1],[0],[0],[2.634469600394368],169.71159750036895,169.7274404000491,171.14576959982514,,,,,,,,,,567241,001,2024-11-12_16h42.50.900,Foreperiod_task,2024.2.1post4,59.93346176876622,2024-11-12 16h42.55.329090 -0800,
52,0,52,[-0.03796296296296296],[0.13148148148148148],[1],[0],[0],[2.4852697998285294],,,,0,0,0,0,52,0,52,0,171.16179530043155,,,,,,,,,,,,171.14620430022478,171.16179530043155,0.00044209975749254227,171.16179530043155,173.14678710047156,173.14678710047156,173.6324030002579,2,normal,0.48526979982852936,[-0.03796296296296296],[0.13148148148148148],[1],[0],[0],[2.4852697998285294],173.63300160039216,173.6472875000909,174.9657120006159,,,,,,,,,,567241,001,2024-11-12_16h42.50.900,Foreperiod_task,2024.2.1post4,59.93346176876622,2024-11-12 16h42.55.329090 -0800,
53,0,53,[-0.03796296296296296],[0.13148148148148148],[1],[0],[0],[1.0001646997407079],,,,0,0,0,0,53,0,53,0,174.9816725999117,,,,,,,,,,,,174.96597480028868,174.9816725999117,0.00026820041239261627,174.9816725999117,175.4654058003798,175.4654058003798,175.96683370042592,0.5,normal,0.5001646997407079,[-0.03796296296296296],[0.13148148148148148],[1],[0],[0],[1.0001646997407079],175.96730490028858,175.9825689997524,177.3176560997963,176.48281939979643,,,,,,,,,567241,001,2024-11-12_16h42.50.900,Foreperiod_task,2024.2.1post4,59.93346176876622,2024-11-12 16h42.55.329090 -0800,
54,0,54,[-0.03796296296296296],[0.13148148148148148],[1],[0],[0],[0.983330799266696],,,,0,0,0,0,54,0,54,0,177.3335774000734,,,,,,,,,,,,177.31793470028788,177.3335774000734,0.0002859998494386673,177.3335774000734,177.81746609974653,177.81746609974653,178.30206049978733,0.5,normal,0.483330799266696,[-0.03796296296296296],[0.13148148148148148],[1],[0],[0],[0.983330799266696],178.30252110026777,178.3177300002426,179.5195559002459,178.8180501004681,,,,,,,,,567241,001,2024-11-12_16h42.50.900,Foreperiod_task,2024.2.1post4,59.93346176876622,2024-11-12 16h42.55.329090 -0800,
55,0,55,[-0.03796296296296296],[0.13148148148148148],[1],[0],[0],[2.3683054000139236],,,,0,0,0,0,55,0,55,0,179.53543670009822,,,,,,,,,,,,179.5197916002944,179.53543670009822,0.0002391999587416649,179.53543670009822,181.52047380059958,181.52047380059958,181.88885550014675,2,normal,0.36830540001392365,[-0.03796296296296296],[0.13148148148148148],[1],[0],[0],[2.3683054000139236],181.88927130028605,181.9041456002742,183.17268330045044,,,,,,,,,,567241,001,2024-11-12_16h42.50.900,Foreperiod_task,2024.2.1post4,59.93346176876622,2024-11-12 16h42.55.329090 -0800,
56,0,56,[-0.03796296296296296],[0.13148148148148148],[1],[0],[0],[2.400991099886596],,,,0,0,0,0,56,0,56,0,183.1885421006009,,,,,,,,,,,,183.1730232005939,183.1885421006009,0.00034270063042640686,183.1885421006009,185.17368909996003,185.17368909996003,185.57462050020695,2,normal,0.4009910998865962,[-0.03796296296296296],[0.13148148148148148],[1],[0],[0],[2.400991099886596],185.57498480007052,185.5904558999464,186.77557000052184,,,,,,,,,,567241,001,2024-11-12_16h42.50.900,Foreperiod_task,2024.2.1post4,59.93346176876622,2024-11-12 16h42.55.329090 -0800,
57,0,57,[-0.03796296296296296],[0.13148148148148148],[1],[0],[0],[2.0852503003552556],,,,0,0,0,0,57,0,57,0,186.7916946997866,,,,,,,,,,,,186.77587500028312,186.7916946997866,0.00031269993633031845,186.7916946997866,188.07567859999835,188.07567859999835,188.8618630003184,1.295788128307004,surprise,0.7894621720482515,[-0.03796296296296296],[0.13148148148148148],[1],[0],[0],[2.0852503003552556],188.8622441003099,188.8765022000298,190.3619381999597,190.17763120029122,,,,,,,,,567241,001,2024-11-12_16h42.50.900,Foreperiod_task,2024.2.1post4,59.93346176876622,2024-11-12 16h42.55.329090 -0800,
58,0,58,[-0.028703703703703703],[0.12037037037037036],[1],[0],[0],[0.8334772000089288],,,,0,0,0,0,58,0,58,0,190.3779263999313,,,,,,,,,,,,190.36222620029002,190.3779263999313,0.00029559992253780365,190.3779263999313,190.86144660040736,190.86144660040736,191.19639409985393,0.5,normal,0.3334772000089288,[-0.028703703703703703],[0.12037037037037036],[1],[0],[0],[0.8334772000089288],191.1967478003353,191.21200000029057,192.46382720023394,191.7122926004231,,,,,,,,,567241,001,2024-11-12_16h42.50.900,Foreperiod_task,2024.2.1post4,59.93346176876622,2024-11-12 16h42.55.329090 -0800,
59,0,59,[-0.028703703703703703],[0.12037037037037036],[1],[0],[0],[0.8168066991493106],,,,0,0,0,0,59,0,59,0,192.47966259997338,,,,,,,,,,,,192.46413620002568,192.47966259997338,0.00031450018286705017,192.47966259997338,192.96335220057517,192.96335220057517,193.28164460044354,0.5,normal,0.3168066991493106,[-0.028703703703703703],[0.12037037037037036],[1],[0],[0],[0.8168066991493106],193.28200400061905,193.29703760053962,194.6321071004495,193.79730470012873,,,,,,,,,567241,001,2024-11-12_16h42.50.900,Foreperiod_task,2024.2.1post4,59.93346176876622,2024-11-12 16h42.55.329090 -0800,
60,0,60,[-0.028703703703703703],[0.12037037037037036],[1],[0],[0],[0.8338812999427319],,,,0,0,0,0,60,0,60,0,194.6480008000508,,,,,,,,,,,,194.6323783006519,194.6480008000508,0.0002760002389550209,194.6480008000508,195.1317515000701,195.1317515000701,195.46698760055006,0.5,normal,0.33388129994273186,[-0.028703703703703703],[0.12037037037037036],[1],[0],[0],[0.8338812999427319],195.46738990023732,195.4821348004043,196.86787960026413,195.9829388000071,,,,,,,,,567241,001,2024-11-12_16h42.50.900,Foreperiod_task,2024.2.1post4,59.93346176876622,2024-11-12 16h42.55.329090 -0800,
61,0,61,[-0.028703703703703703],[0.12037037037037036],[1],[0],[0],[0.7994665000587702],,,,0,0,0,0,61,0,61,0,196.88339029997587,,,,,,,,,,,,196.86818130034953,196.88339029997587,0.0002990998327732086,196.88339029997587,197.36707879975438,197.36707879975438,197.66833580005914,0.5,normal,0.2994665000587702,[-0.028703703703703703],[0.12037037037037036],[1],[0],[0],[0.7994665000587702],197.6686975006014,197.6837972998619,199.20245879981667,198.18431970011443,,,,,,,,,567241,001,2024-11-12_16h42.50.900,Foreperiod_task,2024.2.1post4,59.93346176876622,2024-11-12 16h42.55.329090 -0800,
62,0,62,[-0.028703703703703703],[0.12037037037037036],[1],[0],[0],[2.284911200404167],,,,0,0,0,0,62,0,62,0,199.21853610035032,,,,,,,,,,,,199.20274700038135,199.21853610035032,0.00029450003057718277,199.21853610035032,201.20346830040216,201.20346830040216,201.48834490031004,2,normal,0.2849112004041672,[-0.028703703703703703],[0.12037037037037036],[1],[0],[0],[2.284911200404167],201.4886648003012,201.5036915000528,202.98911389987916,,,,,,,,,,567241,001,2024-11-12_16h42.50.900,Foreperiod_task,2024.2.1post4,59.93346176876622,2024-11-12 16h42.55.329090 -0800,
63,0,63,[-0.028703703703703703],[0.12037037037037036],[1],[0],[0],[1.3509695995599031],,,,0,0,0,0,63,0,63,0,203.00496730022132,,,,,,,,,,,,202.98937659990042,203.00496730022132,0.00027010031044483185,203.00496730022132,204.07249950058758,204.07249950058758,204.34116820059717,1.078036038906066,surprise,0.2729335606538372,[-0.028703703703703703],[0.12037037037037036],[1],[0],[0],[1.3509695995599031],204.3416189001873,204.3562163002789,205.80830060038716,205.44036590028554,,,,,,,,,567241,001,2024-11-12_16h42.50.900,Foreperiod_task,2024.2.1post4,59.93346176876622,2024-11-12 16h42.55.329090 -0800,
64,0,64,[-0.028703703703703703],[0.12037037037037036],[1],[0],[0],[0.8001768998801708],,,,0,0,0,0,64,0,64,0,205.82400710042566,,,,,,,,,,,,205.8085812004283,205.82400710042566,0.0002878997474908829,205.82400710042566,206.30778000038117,206.30778000038117,206.609538000077,0.5,normal,0.3001768998801708,[-0.028703703703703703],[0.12037037037037036],[1],[0],[0],[0.8001768998801708],206.6099637998268,206.62474159989506,207.89329109992832,207.1251675002277,,,,,,,,,567241,001,2024-11-12_16h42.50.900,Foreperiod_task,2024.2.1post4,59.93346176876622,2024-11-12 16h42.55.329090 -0800,
65,0,65,[-0.028703703703703703],[0.12037037037037036],[1],[0],[0],[2.268039300106466],,,,0,0,0,0,65,0,65,0,207.90914569981396,,,,,,,,,,,,207.89355980046093,207.90914569981396,0.00027269963175058365,207.90914569981396,209.89416550006717,209.89416550006717,210.1623910004273,2,normal,0.2680393001064658,[-0.028703703703703703],[0.12037037037037036],[1],[0],[0],[2.268039300106466],210.16294850036502,210.17786070052534,211.6298281000927,,,,,,,,,,567241,001,2024-11-12_16h42.50.900,Foreperiod_task,2024.2.1post4,59.93346176876622,2024-11-12 16h42.55.329090 -0800,
66,0,66,[-0.028703703703703703],[0.12037037037037036],[1],[0],[0],[0.7669051997363567],,,,0,0,0,0,66,0,66,0,211.6455667000264,,,,,,,,,,,,211.630126000382,211.6455667000264,0.00029669981449842453,211.6455667000264,212.1295468006283,212.1295468006283,212.39790000021458,0.5,normal,0.26690519973635674,[-0.028703703703703703],[0.12037037037037036],[1],[0],[0],[0.7669051997363567],212.39850510004908,212.4128970000893,213.94806069973856,212.912961400114,,,,,,,,,567241,001,2024-11-12_16h42.50.900,Foreperiod_task,2024.2.1post4,59.93346176876622,2024-11-12 16h42.55.329090 -0800,
67,0,67,[-0.028703703703703703],[0.12037037037037036],[1],[0],[0],[0.7673311997205019],,,,0,0,0,0,67,0,67,0,213.96413039974868,,,,,,,,,,,,213.94833180028945,213.96413039974868,0.0002776002511382103,213.96413039974868,214.4478874001652,214.4478874001652,214.71650870051235,0.5,normal,0.2673311997205019,[-0.028703703703703703],[0.12037037037037036],[1],[0],[0],[0.7673311997205019],214.71694120019674,214.7315234001726,215.9331817002967,215.23185740038753,,,,,,,,,567241,001,2024-11-12_16h42.50.900,Foreperiod_task,2024.2.1post4,59.93346176876622,2024-11-12 16h42.55.329090 -0800,
68,0,68,[-0.028703703703703703],[0.12037037037037036],[1],[0],[0],[1.701206799596548],,,,0,0,0,0,68,0,68,0,215.94913030043244,,,,,,,,,,,,215.93350940011442,215.94913030043244,0.0003340998664498329,215.94913030043244,217.16665340028703,217.16665340028703,217.63552580028772,1.2234325237403845,surprise,0.4777742758561636,[-0.028703703703703703],[0.12037037037037036],[1],[0],[0],[1.701206799596548],217.63598820008337,217.65066650044173,218.88554770033807,218.88485090062022,,,,,,,,,567241,001,2024-11-12_16h42.50.900,Foreperiod_task,2024.2.1post4,59.93346176876622,2024-11-12 16h42.55.329090 -0800,
69,0,69,[-0.028703703703703703],[0.12037037037037036],[1],[0],[0],[2.251606499776244],,,,0,0,0,0,69,0,69,0,218.90161550045013,,,,,,,,,,,,218.88583560008556,218.90161550045013,0.0002977997064590454,218.90161550045013,220.8863585004583,220.8863585004583,221.13826389983296,2,normal,0.25160649977624416,[-0.028703703703703703],[0.12037037037037036],[1],[0],[0],[2.251606499776244],221.13869629986584,221.15355790033937,222.72228400036693,,,,,,,,,,567241,001,2024-11-12_16h42.50.900,Foreperiod_task,2024.2.1post4,59.93346176876622,2024-11-12 16h42.55.329090 -0800,
70,0,70,[-0.028703703703703703],[0.12037037037037036],[1],[0],[0],[2.284830399788916],,,,0,0,0,0,70,0,70,0,222.73820970021188,,,,,,,,,,,,222.7225676001981,222.73820970021188,0.0002946993336081505,222.73820970021188,224.72310470044613,224.72310470044613,225.00814200006425,2,normal,0.2848303997889161,[-0.028703703703703703],[0.12037037037037036],[1],[0],[0],[2.284830399788916],225.00853470060974,225.0234086997807,226.67579980008304,,,,,,,,,,567241,001,2024-11-12_16h42.50.900,Foreperiod_task,2024.2.1post4,59.93346176876622,2024-11-12 16h42.55.329090 -0800,
71,0,71,[-0.009259259259259259],[0.13425925925925927],[1],[0],[0],[2.334956499747932],,,,0,0,0,0,71,0,71,0,226.6913887001574,,,,,,,,,,,,226.67605970054865,226.6913887001574,0.0002685999497771263,226.6913887001574,228.67579060047865,228.67579060047865,229.01181470043957,2,normal,0.33495649974793196,[-0.009259259259259259],[0.13425925925925927],[1],[0],[0],[2.334956499747932],229.01227550022304,229.0270052999258,230.59538700059056,,,,,,,,,,567241,001,2024-11-12_16h42.50.900,Foreperiod_task,2024.2.1post4,59.93346176876622,2024-11-12 16h42.55.329090 -0800,
72,0,72,[-0.009259259259259259],[0.13425925925925927],[1],[0],[0],[0.9171208003535867],,,,0,0,0,0,72,0,72,0,230.61135970056057,,,,,,,,,,,,230.59564760047942,230.61135970056057,0.00026850029826164246,230.61135970056057,231.0951410997659,231.0951410997659,231.51348260045052,0.5,normal,0.4171208003535867,[-0.009259259259259259],[0.13425925925925927],[1],[0],[0],[0.9171208003535867],231.5139389000833,231.52885090000927,232.9297120999545,232.02920260000974,,,,,,,,,567241,001,2024-11-12_16h42.50.900,Foreperiod_task,2024.2.1post4,59.93346176876622,2024-11-12 16h42.55.329090 -0800,
73,0,73,[-0.009259259259259259],[0.13425925925925927],[1],[0],[0],[2.3530633002519608],,,,0,0,0,0,73,0,73,0,232.9458114998415,,,,,,,,,,,,232.9298245999962,232.9458114998415,0.0001117996871471405,232.9458114998415,234.930982099846,234.930982099846,235.28371939994395,2,normal,0.35306330025196075,[-0.009259259259259259],[0.13425925925925927],[1],[0],[0],[2.3530633002519608],235.28417230024934,235.29854410048574,236.53356180060655,,,,,,,,,,567241,001,2024-11-12_16h42.50.900,Foreperiod_task,2024.2.1post4,59.93346176876622,2024-11-12 16h42.55.329090 -0800,
74,0,74,[-0.009259259259259259],[0.13425925925925927],[1],[0],[0],[1.8846358004957438],,,,0,0,0,0,74,0,74,0,236.54961610026658,,,,,,,,,,,,236.53384529985487,236.54961610026658,0.0002921000123023987,236.54961610026658,237.9499813998118,237.9499813998118,238.41922760009766,1.4159964845531081,surprise,0.46863931594263564,[-0.009259259259259259],[0.13425925925925927],[1],[0],[0],[1.8846358004957438],238.41962940059602,238.43458670005202,239.93498340062797,239.8523171003908,,,,,,,,,567241,001,2024-11-12_16h42.50.900,Foreperiod_task,2024.2.1post4,59.93346176876622,2024-11-12 16h42.55.329090 -0800,
75,0,75,[-0.008333333333333333],[0.13333333333333333],[1],[0],[0],[1.9026803998276591],,,,0,0,0,0,75,0,75,0,239.95218029990792,,,,,,,,,,,,239.93509230017662,239.95218029990792,0.00010939966887235641,239.95218029990792,241.32046160008758,241.32046160008758,241.83840200025588,1.375601097157249,surprise,0.5270793026704101,[-0.008333333333333333],[0.13333333333333333],[1],[0],[0],[1.9026803998276591],241.8387941000983,241.8539681006223,243.5227313004434,243.23862520046532,,,,,,,,,567241,001,2024-11-12_16h42.50.900,Foreperiod_task,2024.2.1post4,59.93346176876622,2024-11-12 16h42.55.329090 -0800,
76,0,76,[-0.008333333333333333],[0.13333333333333333],[1],[0],[0],[2.2848913995549083],,,,0,0,0,0,76,0,76,0,243.5389980999753,,,,,,,,,,,,243.52300440054387,243.5389980999753,0.0002819998189806938,243.5389980999753,245.52384189981967,245.52384189981967,245.808673100546,2,normal,0.2848913995549083,[-0.008333333333333333],[0.13333333333333333],[1],[0],[0],[2.2848913995549083],245.8090522000566,245.82397770043463,247.10924510005862,,,,,,,,,,567241,001,2024-11-12_16h42.50.900,Foreperiod_task,2024.2.1post4,59.93346176876622,2024-11-12 16h42.55.329090 -0800,
77,0,77,[-0.008333333333333333],[0.13333333333333333],[1],[0],[0],[2.284841600805521],,,,0,0,0,0,77,0,77,0,247.12506469991058,,,,,,,,,,,,247.10952920001,247.12506469991058,0.0002915002405643463,247.12506469991058,249.11001459974796,249.11001459974796,249.39516879990697,2,normal,0.284841600805521,[-0.008333333333333333],[0.13333333333333333],[1],[0],[0],[2.284841600805521],249.39561000000685,249.41031980048865,250.67853440064937,,,,,,,,,,567241,001,2024-11-12_16h42.50.900,Foreperiod_task,2024.2.1post4,59.93346176876622,2024-11-12 16h42.55.329090 -0800,
78,0,78,[-0.008333333333333333],[0.13333333333333333],[1],[0],[0],[0.8001216994598508],,,,0,0,0,0,78,0,78,0,250.69488030020148,,,,,,,,,,,,250.67877950053662,250.69488030020148,0.0002514999359846115,250.69488030020148,251.17845370061696,251.17845370061696,251.47931009996682,0.5,normal,0.3001216994598508,[-0.008333333333333333],[0.13333333333333333],[1],[0],[0],[0.8001216994598508],251.47949870023876,251.49563600029796,252.71373810060322,251.99566060025245,,,,,,,,,567241,001,2024-11-12_16h42.50.900,Foreperiod_task,2024.2.1post4,59.93346176876622,2024-11-12 16h42.55.329090 -0800,
79,0,79,[-0.008333333333333333],[0.13333333333333333],[1],[0],[0],[0.7671674005687237],,,,0,0,0,0,79,0,79,0,252.7298226999119,,,,,,,,,,,,252.71400959976017,252.7298226999119,0.00028169993311166763,252.7298226999119,253.21332200057805,253.21332200057805,253.48199759982526,0.5,normal,0.2671674005687237,[-0.008333333333333333],[0.13333333333333333],[1],[0],[0],[0.7671674005687237],253.48239910043776,253.49693750031292,254.96420160029083,253.99745129980147,,,,,,,,,567241,001,2024-11-12_16h42.50.900,Foreperiod_task,2024.2.1post4,59.93346176876622,2024-11-12 16h42.55.329090 -0800,
80,0,80,[-0.008333333333333333],[0.13333333333333333],[1],[0],[0],[2.2866658996790648],,,,0,0,0,0,80,0,80,0,254.98079730011523,,,,,,,,,,,,254.9643096998334,254.98079730011523,0.00010799989104270935,254.98079730011523,256.965628599748,256.965628599748,257.25164919998497,2,normal,0.28666589967906475,[-0.008333333333333333],[0.13333333333333333],[1],[0],[0],[2.2866658996790648],257.2520596999675,257.2667784001678,258.65202920045704,,,,,,,,,,567241,001,2024-11-12_16h42.50.900,Foreperiod_task,2024.2.1post4,59.93346176876622,2024-11-12 16h42.55.329090 -0800,
81,0,81,[0.009259259259259259],[0.13425925925925927],[1],[0],[0],[0.801014400087297],,,,0,0,0,0,81,0,81,0,258.6679418999702,,,,,,,,,,,,258.652327099815,258.6679418999702,0.00030689965933561325,258.6679418999702,259.15182620007545,259.15182620007545,259.45407200045884,0.5,normal,0.30101440008729696,[0.009259259259259259],[0.13425925925925927],[1],[0],[0],[0.801014400087297],259.4545293999836,259.4686756003648,260.96912419982255,259.9680797997862,,,,,,,,,567241,001,2024-11-12_16h42.50.900,Foreperiod_task,2024.2.1post4,59.93346176876622,2024-11-12 16h42.55.329090 -0800,
82,0,82,[0.009259259259259259],[0.13425925925925927],[1],[0],[0],[0.7689736997708678],,,,0,0,0,0,82,0,82,0,260.9862299999222,,,,,,,,,,,,260.96923280041665,260.9862299999222,0.00010900013148784637,260.9862299999222,261.470152400434,261.470152400434,261.7388444002718,0.5,normal,0.2689736997708678,[0.009259259259259259],[0.13425925925925927],[1],[0],[0],[0.7689736997708678],261.7392699997872,261.7539293002337,262.9388576000929,262.254161500372,,,,,,,,,567241,001,2024-11-12_16h42.50.900,Foreperiod_task,2024.2.1post4,59.93346176876622,2024-11-12 16h42.55.329090 -0800,
83,0,83,[0.009259259259259259],[0.13425925925925927],[1],[0],[0],[1.6511020995676517],,,,0,0,0,0,83,0,83,0,262.9548724004999,,,,,,,,,,,,262.9391676997766,262.9548724004999,0.00031009968370199203,262.9548724004999,264.3393317004666,264.3393317004666,264.5911007001996,1.3958836100760488,surprise,0.255218489491603,[0.009259259259259259],[0.13425925925925927],[1],[0],[0],[1.6511020995676517],264.59185899980366,264.606388900429,266.0747875003144,266.00744829978794,,,,,,,,,567241,001,2024-11-12_16h42.50.900,Foreperiod_task,2024.2.1post4,59.93346176876622,2024-11-12 16h42.55.329090 -0800,
84,0,84,[0.009259259259259259],[0.13425925925925927],[1],[0],[0],[2.25150359980762],,,,0,0,0,0,84,0,84,0,266.09089060034603,,,,,,,,,,,,266.07504250016063,266.09089060034603,0.00026880018413066864,266.09089060034603,268.07575719989836,268.07575719989836,268.32722590025514,2,normal,0.25150359980762005,[0.009259259259259259],[0.13425925925925927],[1],[0],[0],[2.25150359980762],268.32760290056467,268.3428373001516,269.64442449994385,,,,,,,,,,567241,001,2024-11-12_16h42.50.900,Foreperiod_task,2024.2.1post4,59.93346176876622,2024-11-12 16h42.55.329090 -0800,
85,0,85,[0.009259259259259259],[0.13425925925925927],[1],[0],[0],[1.584454600699246],,,,0,0,0,0,85,0,85,0,269.6607780000195,,,,,,,,,,,,269.64464880060405,269.6607780000195,0.00023209955543279648,269.6607780000195,270.1443666005507,270.1443666005507,271.22976350039244,0.5,normal,1.084454600699246,[0.009259259259259259],[0.13425925925925927],[1],[0],[0],[1.584454600699246],271.23017180059105,271.2452108003199,272.74699079990387,271.7458367003128,,,,,,,,,567241,001,2024-11-12_16h42.50.900,Foreperiod_task,2024.2.1post4,59.93346176876622,2024-11-12 16h42.55.329090 -0800,
86,0,86,[0.009259259259259259],[0.13425925925925927],[1],[0],[0],[1.4844624996185303],,,,0,0,0,0,86,0,86,0,272.7627702001482,,,,,,,,,,,,272.7472641998902,272.7627702001482,0.0002808002755045891,272.7627702001482,273.914075399749,273.914075399749,274.2324720006436,1.1654240105977718,surprise,0.3190384890207585,[0.009259259259259259],[0.13425925925925927],[1],[0],[0],[1.4844624996185303],274.2329208003357,274.2475800998509,275.7996780006215,275.4152564005926,,,,,,,,,567241,001,2024-11-12_16h42.50.900,Foreperiod_task,2024.2.1post4,59.93346176876622,2024-11-12 16h42.55.329090 -0800,
87,0,87,[0.009259259259259259],[0.13425925925925927],[1],[0],[0],[2.3182184007018805],,,,0,0,0,0,87,0,87,0,275.8156241001561,,,,,,,,,,,,275.80000049993396,275.8156241001561,0.0003311997279524803,275.8156241001561,277.80052740033716,277.80052740033716,278.1189609002322,2,normal,0.31821840070188046,[0.009259259259259259],[0.13425925925925927],[1],[0],[0],[2.3182184007018805],278.11934760026634,278.1346749998629,279.58630790002644,,,,,,,,,,567241,001,2024-11-12_16h42.50.900,Foreperiod_task,2024.2.1post4,59.93346176876622,2024-11-12 16h42.55.329090 -0800,
88,0,88,[0.009259259259259259],[0.13425925925925927],[1],[0],[0],[0.8672685008496046],,,,0,0,0,0,88,0,88,0,279.60174989979714,,,,,,,,,,,,279.5865769004449,279.60174989979714,0.0002771001309156418,279.60174989979714,280.0859107999131,280.0859107999131,280.4545699004084,0.5,normal,0.3672685008496046,[0.009259259259259259],[0.13425925925925927],[1],[0],[0],[0.8672685008496046],280.45497670024633,280.4695827001706,281.67148619983345,280.96979060024023,,,,,,,,,567241,001,2024-11-12_16h42.50.900,Foreperiod_task,2024.2.1post4,59.93346176876622,2024-11-12 16h42.55.329090 -0800,
89,0,89,[0.009259259259259259],[0.13425925925925927],[1],[0],[0],[0.7998021002858877],,,,0,0,0,0,89,0,89,0,281.6871702000499,,,,,,,,,,,,281.6717885006219,281.6871702000499,0.00028929952532052994,281.6871702000499,282.17097309976816,282.17097309976816,282.47214790061116,0.5,normal,0.2998021002858877,[0.009259259259259259],[0.13425925925925927],[1],[0],[0],[0.7998021002858877],282.4724866002798,282.4874868998304,284.0732673006132,282.98813350033015,,,,,,,,,567241,001,2024-11-12_16h42.50.900,Foreperiod_task,2024.2.1post4,59.93346176876622,2024-11-12 16h42.55.329090 -0800,
90,0,90,[0.009259259259259259],[0.13425925925925927],[1],[0],[0],[0.800105799920857],,,,0,0,0,0,90,0,90,0,284.08921300061047,,,,,,,,,,,,284.07352900039405,284.08921300061047,0.0002666004002094269,284.08921300061047,284.57281829975545,284.57281829975545,284.8743166998029,0.5,normal,0.30010579992085695,[0.009259259259259259],[0.13425925925925927],[1],[0],[0],[0.800105799920857],284.8746695006266,284.8898229999468,286.52509419992566,285.3901629000902,,,,,,,,,567241,001,2024-11-12_16h42.50.900,Foreperiod_task,2024.2.1post4,59.93346176876622,2024-11-12 16h42.55.329090 -0800,
91,0,91,[0.009259259259259259],[0.13425925925925927],[1],[0],[0],[2.3018025998026133],,,,0,0,0,0,91,0,91,0,286.54117009975016,,,,,,,,,,,,286.52539920061827,286.54117009975016,0.0003118002787232399,286.54117009975016,288.5263635003939,288.5263635003939,288.82791549991816,2,normal,0.30180259980261326,[0.009259259259259259],[0.13425925925925927],[1],[0],[0],[2.3018025998026133],288.8285181000829,288.84310329984874,290.0781383002177,,,,,,,,,,567241,001,2024-11-12_16h42.50.900,Foreperiod_task,2024.2.1post4,59.93346176876622,2024-11-12 16h42.55.329090 -0800,
92,0,92,[0.009259259259259259],[0.13425925925925927],[1],[0],[0],[0.8502446999773383],,,,0,0,0,0,92,0,92,0,290.0941126998514,,,,,,,,,,,,290.0784355001524,290.0941126998514,0.00030369963496923447,290.0941126998514,290.5779595002532,290.5779595002532,290.9294464997947,0.5,normal,0.3502446999773383,[0.009259259259259259],[0.13425925925925927],[1],[0],[0],[0.8502446999773383],290.9298462001607,290.94438210036606,292.3472754005343,291.44516150001436,,,,,,,,,567241,001,2024-11-12_16h42.50.900,Foreperiod_task,2024.2.1post4,59.93346176876622,2024-11-12 16h42.55.329090 -0800,
93,0,93,[0.009259259259259259],[0.13425925925925927],[1],[0],[0],[2.334383100271225],,,,0,0,0,0,93,0,93,0,292.36285139992833,,,,,,,,,,,,292.3475643005222,292.36285139992833,0.0002969997003674507,292.36285139992833,294.3475566999987,294.3475566999987,294.68304400052875,2,normal,0.334383100271225,[0.009259259259259259],[0.13425925925925927],[1],[0],[0],[2.334383100271225],294.68351540062577,294.6979740001261,296.0831206003204,,,,,,,,,,567241,001,2024-11-12_16h42.50.900,Foreperiod_task,2024.2.1post4,59.93346176876622,2024-11-12 16h42.55.329090 -0800,
94,0,94,[0.009259259259259259],[0.13425925925925927],[1],[0],[0],[2.3018084997311234],,,,0,0,0,0,94,0,94,0,296.0990160005167,,,,,,,,,,,,296.08341090008616,296.0990160005167,0.0003043999895453453,296.0990160005167,298.08423450030386,298.08423450030386,298.3860322004184,2,normal,0.30180849973112345,[0.009259259259259259],[0.13425925925925927],[1],[0],[0],[2.3018084997311234],298.38645619992167,298.40123740024865,300.0530193001032,,,,,,,,,,567241,001,2024-11-12_16h42.50.900,Foreperiod_task,2024.2.1post4,59.93346176876622,2024-11-12 16h42.55.329090 -0800,
95,0,95,[0.009259259259259259],[0.13425925925925927],[1],[0],[0],[2.2851962000131607],,,,0,0,0,0,95,0,95,0,300.0690852999687,,,,,,,,,,,,300.05324599985033,300.0690852999687,0.0002330997958779335,300.0690852999687,302.054009700194,302.054009700194,302.3391057997942,2,normal,0.2851962000131607,[0.009259259259259259],[0.13425925925925927],[1],[0],[0],[2.2851962000131607],302.33946700021625,302.3542573004961,303.82261690031737,,,,,,,,,,567241,001,2024-11-12_16h42.50.900,Foreperiod_task,2024.2.1post4,59.93346176876622,2024-11-12 16h42.55.329090 -0800,
96,0,96,[0.009259259259259259],[0.13425925925925927],[1],[0],[0],[1.8012982998043299],,,,0,0,0,0,96,0,96,0,303.8389640999958,,,,,,,,,,,,303.82297450024635,303.8389640999958,0.0003682998940348625,303.8389640999958,305.3234456004575,305.3234456004575,305.62528649996966,1.4969231227561284,surprise,0.3043751770482015,[0.009259259259259259],[0.13425925925925927],[1],[0],[0],[1.8012982998043299],305.6256478000432,305.640630800277,307.1757107004523,307.14159459993243,,,,,,,,,567241,001,2024-11-12_16h42.50.900,Foreperiod_task,2024.2.1post4,59.93346176876622,2024-11-12 16h42.55.329090 -0800,
97,0,97,[0.009259259259259259],[0.13425925925925927],[1],[0],[0],[1.5177915999665856],,,,0,0,0,0,97,0,97,0,307.1915701003745,,,,,,,,,,,,307.1759980004281,307.1915701003745,0.00028960034251213074,307.1915701003745,308.3592896005139,308.3592896005139,308.69463030062616,1.1819084292223871,surprise,0.3358831707441985,[0.009259259259259259],[0.13425925925925927],[1],[0],[0],[1.5177915999665856],308.6950850998983,308.7097113998607,309.97811220027506,309.89384699985385,,,,,,,,,567241,001,2024-11-12_16h42.50.900,Foreperiod_task,2024.2.1post4,59.93346176876622,2024-11-12 16h42.55.329090 -0800,
98,0,98,[0.009259259259259259],[0.13425925925925927],[1],[0],[0],[0.9002430997788906],,,,0,0,0,0,98,0,98,0,309.99397459998727,,,,,,,,,,,,309.97837920021266,309.99397459998727,0.0002761995419859886,309.99397459998727,310.4777367999777,310.4777367999777,310.879375600256,0.5,normal,0.4002430997788906,[0.009259259259259259],[0.13425925925925927],[1],[0],[0],[0.9002430997788906],310.87979230005294,310.8947494002059,312.4969624001533,311.3951003998518,,,,,,,,,567241,001,2024-11-12_16h42.50.900,Foreperiod_task,2024.2.1post4,59.93346176876622,2024-11-12 16h42.55.329090 -0800,
99,0,99,[0.009259259259259259],[0.13425925925925927],[1],[0],[0],[2.3179933996871114],,,,0,0,0,0,99,0,99,0,312.5128255998716,,,,,,,,,,,,312.4972240002826,312.5128255998716,0.0002684006467461586,312.5128255998716,314.4977569999173,314.4977569999173,314.8159015001729,2,normal,0.3179933996871114,[0.009259259259259259],[0.13425925925925927],[1],[0],[0],[2.3179933996871114],314.81635079998523,314.83148530032486,316.19877640064806,,,,,,,,,,567241,001,2024-11-12_16h42.50.900,Foreperiod_task,2024.2.1post4,59.93346176876622,2024-11-12 16h42.55.329090 -0800,
0,0,0,,,,,,,space,15.038169899955392,None,0,0,0,0,,,,,,,,,,,,,,,,,,,,,,,,,,,,,,,,,,,,,316.21195149980485,316.21578119974583,317.2000018004328,332.25226130057126,space,15.038169899955392,None,,567241,001,2024-11-12_16h42.50.900,Foreperiod_task,2024.2.1post4,59.93346176876622,2024-11-12 16h42.55.329090 -0800,
0,0,0,[0.010185185185185186],[0.13425925925925927],[1],[0],[0],[2.345185700803995],,,,1,0,1,0,0,0,0,0,332.2621022006497,,,,,,,,,,,,332.25307560060173,332.2621022006497,0.0007567992433905602,332.2621022006497,334.2642147000879,334.2642147000879,334.5989850005135,2,normal,0.34518570080399513,[0.010185185185185186],[0.13425925925925927],[1],[0],[0],[2.345185700803995],334.5995375001803,334.6145336003974,335.8996753003448,,,,,,,,,,567241,001,2024-11-12_16h42.50.900,Foreperiod_task,2024.2.1post4,59.93346176876622,2024-11-12 16h42.55.329090 -0800,
1,0,1,[0.012037037037037037],[0.13425925925925927],[1],[0],[0],[2.285058899782598],,,,1,0,1,0,1,0,1,0,335.91558170039207,,,,,,,,,,,,335.8999773003161,335.91558170039207,0.00030830036848783493,335.91558170039207,337.90065119974315,337.90065119974315,338.1858056001365,2,normal,0.285058899782598,[0.012037037037037037],[0.13425925925925927],[1],[0],[0],[2.285058899782598],338.1863254001364,338.20084619987756,339.78630380053073,,,,,,,,,,567241,001,2024-11-12_16h42.50.900,Foreperiod_task,2024.2.1post4,59.93346176876622,2024-11-12 16h42.55.329090 -0800,
2,0,2,[0.012037037037037037],[0.13425925925925927],[1],[0],[0],[0.7836211994290352],,,,1,0,1,0,2,0,2,0,339.8020126000047,,,,,,,,,,,,339.78653089981526,339.8020126000047,0.00022799987345933914,339.8020126000047,340.28585630003363,340.28585630003363,340.57092230021954,0.5,normal,0.2836211994290352,[0.012037037037037037],[0.13425925925925927],[1],[0],[0],[0.7836211994290352],340.57161480002105,340.58609069976956,342.13808290008456,341.0864193998277,,,,,,,,,567241,001,2024-11-12_16h42.50.900,Foreperiod_task,2024.2.1post4,59.93346176876622,2024-11-12 16h42.55.329090 -0800,
3,0,3,[0.012037037037037037],[0.13425925925925927],[1],[0],[0],[2.2852838998660445],,,,1,0,1,0,3,0,3,0,342.1540763005614,,,,,,,,,,,,342.13834649976343,342.1540763005614,0.00028350017964839935,342.1540763005614,344.1392043000087,344.1392043000087,344.42453659977764,2,normal,0.2852838998660445,[0.012037037037037037],[0.13425925925925927],[1],[0],[0],[2.2852838998660445],344.42518180049956,344.43929210025817,345.75763380061835,,,,,,,,,,567241,001,2024-11-12_16h42.50.900,Foreperiod_task,2024.2.1post4,59.93346176876622,2024-11-12 16h42.55.329090 -0800,
4,0,4,[0.012037037037037037],[0.13425925925925927],[1],[0],[0],[2.285258499905467],,,,1,0,1,0,4,0,4,0,345.7739035002887,,,,,,,,,,,,345.75786919984967,345.7739035002887,0.00024230033159255981,345.7739035002887,347.7588905002922,347.7588905002922,348.0438914997503,2,normal,0.28525849990546703,[0.012037037037037037],[0.13425925925925927],[1],[0],[0],[2.285258499905467],348.0444534001872,348.05914130061865,349.31075480021536,,,,,,,,,,567241,001,2024-11-12_16h42.50.900,Foreperiod_task,2024.2.1post4,59.93346176876622,2024-11-12 16h42.55.329090 -0800,
5,0,5,[0.012037037037037037],[0.13425925925925927],[1],[0],[0],[0.8332871999591589],,,,1,0,1,0,5,0,5,0,349.326843299903,,,,,,,,,,,,349.31103210058063,349.326843299903,0.00028690043836832047,349.326843299903,349.81089220009744,349.81089220009744,350.14521010033786,0.5,normal,0.3332871999591589,[0.012037037037037037],[0.13425925925925927],[1],[0],[0],[0.8332871999591589],350.1457043001428,350.16073190048337,351.6627465998754,350.66112720035017,,,,,,,,,567241,001,2024-11-12_16h42.50.900,Foreperiod_task,2024.2.1post4,59.93346176876622,2024-11-12 16h42.55.329090 -0800,
6,0,6,[0.012037037037037037],[0.13425925925925927],[1],[0],[0],[2.285191500559449],,,,1,0,1,0,6,0,6,0,351.67868109978735,,,,,,,,,,,,351.6630132999271,351.67868109978735,0.0002758000046014786,351.67868109978735,353.66370460018516,353.66370460018516,353.9491068003699,2,normal,0.2851915005594492,[0.012037037037037037],[0.13425925925925927],[1],[0],[0],[2.285191500559449],353.9496357999742,353.96390200033784,355.63266390003264,,,,,,,,,,567241,001,2024-11-12_16h42.50.900,Foreperiod_task,2024.2.1post4,59.93346176876622,2024-11-12 16h42.55.329090 -0800,
7,0,7,[0.012037037037037037],[0.13425925925925927],[1],[0],[0],[0.9172196993604302],,,,1,0,1,0,7,0,7,0,355.64866080041975,,,,,,,,,,,,355.63292970042676,355.64866080041975,0.0002798996865749359,355.64866080041975,356.13170950021595,356.13170950021595,356.55088130012155,0.5,normal,0.41721969936043024,[0.012037037037037037],[0.13425925925925927],[1],[0],[0],[0.9172196993604302],356.55128540005535,356.5660548005253,357.734386600554,357.0663790004328,,,,,,,,,567241,001,2024-11-12_16h42.50.900,Foreperiod_task,2024.2.1post4,59.93346176876622,2024-11-12 16h42.55.329090 -0800,
8,0,8,[0.012037037037037037],[0.13425925925925927],[1],[0],[0],[0.816873099654913],,,,1,0,1,0,8,0,8,0,357.7503669001162,,,,,,,,,,,,357.7346684001386,357.7503669001162,0.0002862997353076935,357.7503669001162,358.23420600034297,358.23420600034297,358.5522353006527,0.5,normal,0.31687309965491295,[0.012037037037037037],[0.13425925925925927],[1],[0],[0],[0.816873099654913],358.5526203000918,358.5675106002018,359.7527691004798,359.0678807999939,,,,,,,,,567241,001,2024-11-12_16h42.50.900,Foreperiod_task,2024.2.1post4,59.93346176876622,2024-11-12 16h42.55.329090 -0800,
9,0,9,[0.012037037037037037],[0.13425925925925927],[1],[0],[0],[2.301038400270045],,,,1,0,1,0,9,0,9,0,359.7687598997727,,,,,,,,,,,,359.75305180065334,359.7687598997727,0.00031259935349226,359.7687598997727,361.753870700486,361.753870700486,362.05483970046043,2,normal,0.3010384002700448,[0.012037037037037037],[0.13425925925925927],[1],[0],[0],[2.301038400270045],362.05521710030735,362.07063310034573,363.73838800005615,,,,,,,,,,567241,001,2024-11-12_16h42.50.900,Foreperiod_task,2024.2.1post4,59.93346176876622,2024-11-12 16h42.55.329090 -0800,
10,0,10,[0.012037037037037037],[0.13425925925925927],[1],[0],[0],[2.302759200334549],,,,1,0,1,0,10,0,10,0,363.75552310049534,,,,,,,,,,,,363.7385400002822,363.75552310049534,0.00015200022608041763,363.75552310049534,365.7403046004474,365.7403046004474,366.0419362001121,2,normal,0.30275920033454895,[0.012037037037037037],[0.13425925925925927],[1],[0],[0],[2.302759200334549],366.04231700021774,366.05735629983246,367.6261392002925,,,,,,,,,,567241,001,2024-11-12_16h42.50.900,Foreperiod_task,2024.2.1post4,59.93346176876622,2024-11-12 16h42.55.329090 -0800,
11,0,11,[0.012037037037037037],[0.13425925925925927],[1],[0],[0],[2.3014540001749992],,,,1,0,1,0,11,0,11,0,367.6420026998967,,,,,,,,,,,,367.6264141006395,367.6420026998967,0.00028670020401477814,367.6420026998967,369.6269719004631,369.6269719004631,369.9285721005872,2,normal,0.30145400017499924,[0.012037037037037037],[0.13425925925925927],[1],[0],[0],[2.3014540001749992],369.92891679983586,369.943805700168,371.49579889979213,,,,,,,,,,567241,001,2024-11-12_16h42.50.900,Foreperiod_task,2024.2.1post4,59.93346176876622,2024-11-12 16h42.55.329090 -0800,
12,0,12,[0.012037037037037037],[0.13425925925925927],[1],[0],[0],[0.8837967999279499],,,,1,0,1,0,12,0,12,0,371.5118295997381,,,,,,,,,,,,371.49606010038406,371.5118295997381,0.000269399955868721,371.5118295997381,371.99582479987293,371.99582479987293,372.3806817000732,0.5,normal,0.3837967999279499,[0.012037037037037037],[0.13425925925925927],[1],[0],[0],[0.8837967999279499],372.38109990023077,372.3959699999541,373.64754140004516,372.89639340061694,,,,,,,,,567241,001,2024-11-12_16h42.50.900,Foreperiod_task,2024.2.1post4,59.93346176876622,2024-11-12 16h42.55.329090 -0800,
13,0,13,[0.012037037037037037],[0.13425925925925927],[1],[0],[0],[0.8009585002437234],,,,1,0,1,0,13,0,13,0,373.66363260056823,,,,,,,,,,,,373.6478014998138,373.66363260056823,0.00026830006390810013,373.66363260056823,374.14726340025663,374.14726340025663,374.4494949998334,0.5,normal,0.3009585002437234,[0.012037037037037037],[0.13425925925925927],[1],[0],[0],[0.8009585002437234],374.4498594002798,374.46451759990305,375.7326373998076,374.96464050002396,,,,,,,,,567241,001,2024-11-12_16h42.50.900,Foreperiod_task,2024.2.1post4,59.93346176876622,2024-11-12 16h42.55.329090 -0800,
14,0,14,[0.012037037037037037],[0.13425925925925927],[1],[0],[0],[2.3019391996786],,,,1,0,1,0,14,0,14,0,375.7486164001748,,,,,,,,,,,,375.7330328999087,375.7486164001748,0.00040300004184246063,375.7486164001748,377.73371030017734,377.73371030017734,378.03593329992145,2,normal,0.30193919967859983,[0.012037037037037037],[0.13425925925925927],[1],[0],[0],[2.3019391996786],378.0364917004481,378.05091719981283,379.5024057002738,,,,,,,,,,567241,001,2024-11-12_16h42.50.900,Foreperiod_task,2024.2.1post4,59.93346176876622,2024-11-12 16h42.55.329090 -0800,
15,0,15,[0.012037037037037037],[0.13425925925925927],[1],[0],[0],[2.3019807003438473],,,,1,0,1,0,15,0,15,0,379.518497900106,,,,,,,,,,,,379.5026291003451,379.518497900106,0.00022870022803544998,379.518497900106,381.503406399861,381.503406399861,381.80539640039206,2,normal,0.3019807003438473,[0.012037037037037037],[0.13425925925925927],[1],[0],[0],[2.3019807003438473],381.8058486999944,381.8204594999552,383.3889490002766,,,,,,,,,,567241,001,2024-11-12_16h42.50.900,Foreperiod_task,2024.2.1post4,59.93346176876622,2024-11-12 16h42.55.329090 -0800,
16,0,16,[0.012037037037037037],[0.13425925925925927],[1],[0],[0],[0.8174751996994019],,,,1,0,1,0,16,0,16,0,383.405000500381,,,,,,,,,,,,383.38922160025686,383.405000500381,0.0002830997109413147,383.405000500381,383.88835620041937,383.88835620041937,384.20746180042624,0.5,normal,0.31747519969940186,[0.012037037037037037],[0.13425925925925927],[1],[0],[0],[0.8174751996994019],384.2078531999141,384.2224820004776,385.6908771004528,384.7229863004759,,,,,,,,,567241,001,2024-11-12_16h42.50.900,Foreperiod_task,2024.2.1post4,59.93346176876622,2024-11-12 16h42.55.329090 -0800,
17,0,17,[0.012037037037037037],[0.13425925925925927],[1],[0],[0],[2.302352000027895],,,,1,0,1,0,17,0,17,0,385.706925900653,,,,,,,,,,,,385.69113240018487,385.706925900653,0.00026190001517534256,385.706925900653,387.69210090022534,387.69210090022534,387.99435340054333,2,normal,0.302352000027895,[0.012037037037037037],[0.13425925925925927],[1],[0],[0],[2.302352000027895],387.99483020044863,388.00911230035126,389.56109319999814,,,,,,,,,,567241,001,2024-11-12_16h42.50.900,Foreperiod_task,2024.2.1post4,59.93346176876622,2024-11-12 16h42.55.329090 -0800,
18,0,18,[0.012037037037037037],[0.13425925925925927],[1],[0],[0],[2.351177600212395],,,,1,0,1,0,18,0,18,0,389.57724510040134,,,,,,,,,,,,389.5613943003118,389.57724510040134,0.0003074994310736656,389.57724510040134,391.56208570022136,391.56208570022136,391.91335850022733,2,normal,0.3511776002123952,[0.012037037037037037],[0.13425925925925927],[1],[0],[0],[2.351177600212395],391.91376840043813,391.9289600998163,393.46431570034474,,,,,,,,,,567241,001,2024-11-12_16h42.50.900,Foreperiod_task,2024.2.1post4,59.93346176876622,2024-11-12 16h42.55.329090 -0800,
19,0,19,[0.012037037037037037],[0.13425925925925927],[1],[0],[0],[0.8497283002361655],,,,1,0,1,0,19,0,19,0,393.4802958006039,,,,,,,,,,,,393.4646273003891,393.4802958006039,0.00030060019344091415,393.4802958006039,393.9638780001551,393.9638780001551,394.3150008004159,0.5,normal,0.3497283002361655,[0.012037037037037037],[0.13425925925925927],[1],[0],[0],[0.8497283002361655],394.31530820019543,394.33091450016946,395.58266280032694,394.83139370009303,,,,,,,,,567241,001,2024-11-12_16h42.50.900,Foreperiod_task,2024.2.1post4,59.93346176876622,2024-11-12 16h42.55.329090 -0800,
20,0,20,[0.012037037037037037],[0.13425925925925927],[1],[0],[0],[2.334805100224912],,,,1,0,1,0,20,0,20,0,395.59876010008156,,,,,,,,,,,,395.58294610027224,395.59876010008156,0.000296800397336483,395.59876010008156,397.5838184999302,397.5838184999302,397.91859490051866,2,normal,0.33480510022491217,[0.012037037037037037],[0.13425925925925927],[1],[0],[0],[2.334805100224912],397.9189871000126,397.9341870006174,399.5692966999486,,,,,,,,,,567241,001,2024-11-12_16h42.50.900,Foreperiod_task,2024.2.1post4,59.93346176876622,2024-11-12 16h42.55.329090 -0800,
21,0,21,[0.012037037037037037],[0.13425925925925927],[1],[0],[0],[2.3685460994020104],,,,1,0,1,0,21,0,21,0,399.5851790998131,,,,,,,,,,,,399.56958380062133,399.5851790998131,0.0002955002710223198,399.5851790998131,401.5703520998359,401.5703520998359,401.9389829998836,2,normal,0.36854609940201044,[0.012037037037037037],[0.13425925925925927],[1],[0],[0],[2.3685460994020104],401.9394468003884,401.95387980062515,403.1723309997469,,,,,,,,,,567241,001,2024-11-12_16h42.50.900,Foreperiod_task,2024.2.1post4,59.93346176876622,2024-11-12 16h42.55.329090 -0800,
22,0,22,[0.012037037037037037],[0.13425925925925927],[1],[0],[0],[0.9503468004986644],,,,1,0,1,0,22,0,22,0,403.1881664004177,,,,,,,,,,,,403.17261020001024,403.1881664004177,0.0002776002511382103,403.1881664004177,403.67186020035297,403.67186020035297,404.12371100019664,0.5,normal,0.4503468004986644,[0.012037037037037037],[0.13425925925925927],[1],[0],[0],[0.9503468004986644],404.1241028998047,404.13908580038697,405.7578250998631,404.63972720038146,,,,,,,,,567241,001,2024-11-12_16h42.50.900,Foreperiod_task,2024.2.1post4,59.93346176876622,2024-11-12 16h42.55.329090 -0800,
23,0,23,[0.012037037037037037],[0.13425925925925927],[1],[0],[0],[2.3183011999353766],,,,1,0,1,0,23,0,23,0,405.77372760046273,,,,,,,,,,,,405.7580917002633,405.77372760046273,0.00027609989047050476,405.77372760046273,407.7587748002261,407.7587748002261,408.0771930003539,2,normal,0.31830119993537664,[0.012037037037037037],[0.13425925925925927],[1],[0],[0],[2.3183011999353766],408.0776257002726,408.09240000043064,409.4442416001111,,,,,,,,,,567241,001,2024-11-12_16h42.50.900,Foreperiod_task,2024.2.1post4,59.93346176876622,2024-11-12 16h42.55.329090 -0800,
24,0,24,[0.012037037037037037],[0.13796296296296295],[1],[0],[0],[2.301638100296259],,,,1,0,1,0,24,0,24,0,409.46010570041835,,,,,,,,,,,,409.44455169979483,409.46010570041835,0.0003146994858980179,409.46010570041835,411.44537950027734,411.44537950027734,411.74705130048096,2,normal,0.3016381002962589,[0.012037037037037037],[0.13796296296296295],[1],[0],[0],[2.301638100296259],411.74750130064785,411.76218350045383,412.96389080025256,,,,,,,,,,567241,001,2024-11-12_16h42.50.900,Foreperiod_task,2024.2.1post4,59.93346176876622,2024-11-12 16h42.55.329090 -0800,
25,0,25,[0.012037037037037037],[0.13796296296296295],[1],[0],[0],[0.8837812002748251],,,,1,0,1,0,25,0,25,0,412.97987719997764,,,,,,,,,,,,412.9641746999696,412.97987719997764,0.0002905000001192093,412.97987719997764,413.46382640022784,413.46382640022784,413.84867940004915,0.5,normal,0.3837812002748251,[0.012037037037037037],[0.13796296296296295],[1],[0],[0],[0.8837812002748251],413.8490673005581,413.8639139002189,415.3824364999309,414.3642891002819,,,,,,,,,567241,001,2024-11-12_16h42.50.900,Foreperiod_task,2024.2.1post4,59.93346176876622,2024-11-12 16h42.55.329090 -0800,
26,0,26,[0.012037037037037037],[0.13796296296296295],[1],[0],[0],[2.3512105997651815],,,,1,0,1,0,26,0,26,0,415.39831680059433,,,,,,,,,,,,415.3827710999176,415.39831680059433,0.0003353999927639961,415.39831680059433,417.383359500207,417.383359500207,417.7347916997969,2,normal,0.35121059976518154,[0.012037037037037037],[0.13796296296296295],[1],[0],[0],[2.3512105997651815],417.73522850032896,417.75035629980266,418.98547630012035,,,,,,,,,,567241,001,2024-11-12_16h42.50.900,Foreperiod_task,2024.2.1post4,59.93346176876622,2024-11-12 16h42.55.329090 -0800,
27,0,27,[0.012037037037037037],[0.13796296296296295],[1],[0],[0],[2.3008330995216966],,,,1,0,1,0,27,0,27,0,419.0013610003516,,,,,,,,,,,,418.98581469990313,419.0013610003516,0.0003473004326224327,419.0013610003516,420.9863841999322,420.9863841999322,421.2872294001281,2,normal,0.30083309952169657,[0.012037037037037037],[0.13796296296296295],[1],[0],[0],[2.3008330995216966],421.28753530047834,421.30322859995067,422.85531430039555,,,,,,,,,,567241,001,2024-11-12_16h42.50.900,Foreperiod_task,2024.2.1post4,59.93346176876622,2024-11-12 16h42.55.329090 -0800,
28,0,28,[0.012037037037037037],[0.13796296296296295],[1],[0],[0],[0.8002733001485467],,,,1,0,1,0,28,0,28,0,422.8712546005845,,,,,,,,,,,,422.85559220053256,422.8712546005845,0.0002858005464076996,422.8712546005845,423.3549749003723,423.3549749003723,423.6567175006494,0.5,normal,0.3002733001485467,[0.012037037037037037],[0.13796296296296295],[1],[0],[0],[0.8002733001485467],423.6572040002793,423.67199350055307,425.0071128997952,424.1722365003079,,,,,,,,,567241,001,2024-11-12_16h42.50.900,Foreperiod_task,2024.2.1post4,59.93346176876622,2024-11-12 16h42.55.329090 -0800,
29,0,29,[0.012037037037037037],[0.13796296296296295],[1],[0],[0],[2.3846995001658797],,,,1,0,1,0,29,0,29,0,425.022986500524,,,,,,,,,,,,425.0074159000069,425.022986500524,0.000287800095975399,425.022986500524,427.00806130003184,427.00806130003184,427.39276630058885,2,normal,0.3846995001658797,[0.012037037037037037],[0.13796296296296295],[1],[0],[0],[2.3846995001658797],427.3931013001129,427.4084654003382,428.6601816006005,,,,,,,,,,567241,001,2024-11-12_16h42.50.900,Foreperiod_task,2024.2.1post4,59.93346176876622,2024-11-12 16h42.55.329090 -0800,
30,0,30,[0.012037037037037037],[0.13796296296296295],[1],[0],[0],[0.833228999748826],,,,1,0,1,0,30,0,30,0,428.6761786006391,,,,,,,,,,,,428.66043519973755,428.6761786006391,0.0002592001110315323,428.6761786006391,429.16011629998684,429.16011629998684,429.49444709997624,0.5,normal,0.333228999748826,[0.012037037037037037],[0.13796296296296295],[1],[0],[0],[0.833228999748826],429.4948797002435,429.5101479999721,430.96225740015507,430.0101028997451,,,,,,,,,567241,001,2024-11-12_16h42.50.900,Foreperiod_task,2024.2.1post4,59.93346176876622,2024-11-12 16h42.55.329090 -0800,
31,0,31,[0.012037037037037037],[0.13796296296296295],[1],[0],[0],[0.8504740996286273],,,,1,0,1,0,31,0,31,0,430.9777827002108,,,,,,,,,,,,430.96256530005485,430.9777827002108,0.0003166003152728081,430.9777827002108,431.4617255004123,431.4617255004123,431.81394940055907,0.5,normal,0.3504740996286273,[0.012037037037037037],[0.13796296296296295],[1],[0],[0],[0.8504740996286273],431.8144933003932,431.82890990003943,433.1638398002833,432.3292666999623,,,,,,,,,567241,001,2024-11-12_16h42.50.900,Foreperiod_task,2024.2.1post4,59.93346176876622,2024-11-12 16h42.55.329090 -0800,
32,0,32,[0.012037037037037037],[0.13796296296296295],[1],[0],[0],[2.2849655002355576],,,,1,0,1,0,32,0,32,0,433.17972490005195,,,,,,,,,,,,433.16410579998046,433.17972490005195,0.00027429964393377304,433.17972490005195,435.1647615004331,435.1647615004331,435.4498439002782,2,normal,0.28496550023555756,[0.012037037037037037],[0.13796296296296295],[1],[0],[0],[2.2849655002355576],435.4501886004582,435.46506960038096,436.8502863999456,,,,,,,,,,567241,001,2024-11-12_16h42.50.900,Foreperiod_task,2024.2.1post4,59.93346176876622,2024-11-12 16h42.55.329090 -0800,
33,0,33,[0.012037037037037037],[0.13796296296296295],[1],[0],[0],[1.1839942997321486],,,,1,0,1,0,33,0,33,0,436.8660788005218,,,,,,,,,,,,436.8506044000387,436.8660788005218,0.0003255000337958336,436.8660788005218,437.3498923005536,437.3498923005536,438.03525040019304,0.5,normal,0.6839942997321486,[0.012037037037037037],[0.13796296296296295],[1],[0],[0],[1.1839942997321486],438.0356058003381,438.0505819004029,439.3181451000273,438.55090270005167,,,,,,,,,567241,001,2024-11-12_16h42.50.900,Foreperiod_task,2024.2.1post4,59.93346176876622,2024-11-12 16h42.55.329090 -0800,
34,0,34,[0.012037037037037037],[0.13796296296296295],[1],[0],[0],[1.0178437996655703],,,,1,0,1,0,34,0,34,0,439.3346925005317,,,,,,,,,,,,439.31830069981515,439.3346925005317,0.00014789961278438568,439.3346925005317,439.8188236001879,439.8188236001879,440.3368626004085,0.5,normal,0.5178437996655703,[0.012037037037037037],[0.13796296296296295],[1],[0],[0],[1.0178437996655703],440.33727730065584,440.35246900003403,441.9377522999421,440.85274820029736,,,,,,,,,567241,001,2024-11-12_16h42.50.900,Foreperiod_task,2024.2.1post4,59.93346176876622,2024-11-12 16h42.55.329090 -0800,
35,0,35,[0.012037037037037037],[0.13796296296296295],[1],[0],[0],[0.783938099630177],,,,1,0,1,0,35,0,35,0,441.9537919005379,,,,,,,,,,,,441.93804800044745,441.9537919005379,0.0003060000017285347,441.9537919005379,442.4372647004202,442.4372647004202,442.72268689982593,0.5,normal,0.283938099630177,[0.012037037037037037],[0.13796296296296295],[1],[0],[0],[0.783938099630177],442.7230671001598,442.73787980061024,444.20650629978627,443.23816690035164,,,,,,,,,567241,001,2024-11-12_16h42.50.900,Foreperiod_task,2024.2.1post4,59.93346176876622,2024-11-12 16h42.55.329090 -0800,
36,0,36,[0.012037037037037037],[0.13796296296296295],[1],[0],[0],[0.8668530005961657],,,,1,0,1,0,36,0,36,0,444.2222806001082,,,,,,,,,,,,444.20681450050324,444.2222806001082,0.00030639953911304474,444.2222806001082,444.70603650063276,444.70603650063276,445.0745171001181,0.5,normal,0.36685300059616566,[0.012037037037037037],[0.13796296296296295],[1],[0],[0],[0.8668530005961657],445.0750799002126,445.08973649982363,446.5248941006139,445.5903163999319,,,,,,,,,567241,001,2024-11-12_16h42.50.900,Foreperiod_task,2024.2.1post4,59.93346176876622,2024-11-12 16h42.55.329090 -0800,
37,0,37,[0.012037037037037037],[0.13796296296296295],[1],[0],[0],[0.7999747004359961],,,,1,0,1,0,37,0,37,0,446.5408358005807,,,,,,,,,,,,446.52522830013186,446.5408358005807,0.00033999979496002197,446.5408358005807,447.0246969005093,447.0246969005093,447.32588620018214,0.5,normal,0.29997470043599606,[0.012037037037037037],[0.13796296296296295],[1],[0],[0],[0.7999747004359961],447.3263247003779,447.34079090040177,448.52663470059633,447.8422328000888,,,,,,,,,567241,001,2024-11-12_16h42.50.900,Foreperiod_task,2024.2.1post4,59.93346176876622,2024-11-12 16h42.55.329090 -0800,
38,0,38,[0.012037037037037037],[0.13796296296296295],[1],[0],[0],[1.734337699599564],,,,1,0,1,0,38,0,38,0,448.542579700239,,,,,,,,,,,,448.5268949000165,448.542579700239,0.000268399715423584,448.542579700239,449.91027920041233,449.91027920041233,450.26185599993914,1.3843127959476649,surprise,0.3500249036518992,[0.012037037037037037],[0.13796296296296295],[1],[0],[0],[1.734337699599564],450.26226430013776,450.2773871999234,451.7460532998666,451.66191910021007,,,,,,,,,567241,001,2024-11-12_16h42.50.900,Foreperiod_task,2024.2.1post4,59.93346176876622,2024-11-12 16h42.55.329090 -0800,
39,0,39,[0.012037037037037037],[0.13796296296296295],[1],[0],[0],[0.9342284994199872],,,,1,0,1,0,39,0,39,0,451.76187019981444,,,,,,,,,,,,451.74636140000075,451.76187019981444,0.0003407001495361328,451.76187019981444,452.24581690039486,452.24581690039486,452.6816122001037,0.5,normal,0.4342284994199872,[0.012037037037037037],[0.13796296296296295],[1],[0],[0],[0.9342284994199872],452.6821721000597,452.69603720027953,454.3477284004912,453.19642420019954,,,,,,,,,567241,001,2024-11-12_16h42.50.900,Foreperiod_task,2024.2.1post4,59.93346176876622,2024-11-12 16h42.55.329090 -0800,
40,0,40,[0.012037037037037037],[0.13796296296296295],[1],[0],[0],[2.3187108002603054],,,,1,0,1,0,40,0,40,0,454.36453170049936,,,,,,,,,,,,454.3480000998825,454.36453170049936,0.00030609965324401855,454.36453170049936,456.34906680043787,456.34906680043787,456.6675901999697,2,normal,0.3187108002603054,[0.012037037037037037],[0.13796296296296295],[1],[0],[0],[2.3187108002603054],456.66815039981157,456.68268540035933,458.01794230006635,,,,,,,,,,567241,001,2024-11-12_16h42.50.900,Foreperiod_task,2024.2.1post4,59.93346176876622,2024-11-12 16h42.55.329090 -0800,
41,0,41,[0.012037037037037037],[0.13796296296296295],[1],[0],[0],[2.3179680993780494],,,,1,0,1,0,41,0,41,0,458.03402910009027,,,,,,,,,,,,458.01823229994625,458.03402910009027,0.00029709935188293457,458.03402910009027,460.01895069982857,460.01895069982857,460.3368254005909,2,normal,0.3179680993780494,[0.012037037037037037],[0.13796296296296295],[1],[0],[0],[2.3179680993780494],460.337233800441,460.35215689986944,461.9871308999136,,,,,,,,,,567241,001,2024-11-12_16h42.50.900,Foreperiod_task,2024.2.1post4,59.93346176876622,2024-11-12 16h42.55.329090 -0800,
42,0,42,[0.012037037037037037],[0.13796296296296295],[1],[0],[0],[0.917900400236249],,,,1,0,1,0,42,0,42,0,462.0033868998289,,,,,,,,,,,,461.9873691005632,462.0033868998289,0.0002496996894478798,462.0033868998289,462.4875782998279,462.4875782998279,462.90590630006045,0.5,normal,0.41790040023624897,[0.012037037037037037],[0.13796296296296295],[1],[0],[0],[0.917900400236249],462.90631830040365,462.9211955005303,464.17313120048493,463.4207036998123,,,,,,,,,567241,001,2024-11-12_16h42.50.900,Foreperiod_task,2024.2.1post4,59.93346176876622,2024-11-12 16h42.55.329090 -0800,
43,0,43,[0.012037037037037037],[0.13796296296296295],[1],[0],[0],[2.902142300270498],,,,1,0,1,0,43,0,43,0,464.18904499989003,,,,,,,,,,,,464.1733595998958,464.18904499989003,0.00023449957370758057,464.18904499989003,466.17397500015795,466.17397500015795,467.07628819998354,2,normal,0.9021423002704978,[0.012037037037037037],[0.13796296296296295],[1],[0],[0],[2.902142300270498],467.07680180016905,467.09142010007054,468.276509700343,,,,,,,,,,567241,001,2024-11-12_16h42.50.900,Foreperiod_task,2024.2.1post4,59.93346176876622,2024-11-12 16h42.55.329090 -0800,
44,0,44,[0.012037037037037037],[0.13796296296296295],[1],[0],[0],[2.3018461000174284],,,,1,0,1,0,44,0,44,0,468.2924142004922,,,,,,,,,,,,468.2767892004922,468.2924142004922,0.00028930045664310455,468.2924142004922,470.2773980004713,470.2773980004713,470.57945520058274,2,normal,0.3018461000174284,[0.012037037037037037],[0.13796296296296295],[1],[0],[0],[2.3018461000174284],470.5800296999514,470.5943248998374,472.1126867001876,,,,,,,,,,567241,001,2024-11-12_16h42.50.900,Foreperiod_task,2024.2.1post4,59.93346176876622,2024-11-12 16h42.55.329090 -0800,
45,0,45,[0.012037037037037037],[0.13796296296296295],[1],[0],[0],[1.7513530999422073],,,,1,0,1,0,45,0,45,0,472.12873170059174,,,,,,,,,,,,472.11293030064553,472.12873170059174,0.0002494007349014282,472.12873170059174,473.5799775002524,473.5799775002524,473.86505440063775,1.4543070932651037,surprise,0.2970460066771037,[0.012037037037037037],[0.13796296296296295],[1],[0],[0],[1.7513530999422073],473.86557180061936,473.8803457003087,475.19878930039704,,,,,,,,,,567241,001,2024-11-12_16h42.50.900,Foreperiod_task,2024.2.1post4,59.93346176876622,2024-11-12 16h42.55.329090 -0800,
46,0,46,[0.012037037037037037],[0.13796296296296295],[1],[0],[0],[2.351183000020683],,,,1,0,1,0,46,0,46,0,475.2147380998358,,,,,,,,,,,,475.19907729979604,475.2147380998358,0.000299699604511261,475.2147380998358,477.19994689989835,477.19994689989835,477.55108890030533,2,normal,0.3511830000206828,[0.012037037037037037],[0.13796296296296295],[1],[0],[0],[2.351183000020683],477.551517800428,477.5663907006383,478.8185477005318,,,,,,,,,,567241,001,2024-11-12_16h42.50.900,Foreperiod_task,2024.2.1post4,59.93346176876622,2024-11-12 16h42.55.329090 -0800,
47,0,47,[0.012037037037037037],[0.13796296296296295],[1],[0],[0],[2.3014563005417585],,,,1,0,1,0,47,0,47,0,478.8345509003848,,,,,,,,,,,,478.8188249003142,478.8345509003848,0.00028400029987096786,478.8345509003848,480.8193468004465,480.8193468004465,481.1209679003805,2,normal,0.30145630054175854,[0.012037037037037037],[0.13796296296296295],[1],[0],[0],[2.3014563005417585],481.12131329998374,481.13658769987524,482.6885775998235,,,,,,,,,,567241,001,2024-11-12_16h42.50.900,Foreperiod_task,2024.2.1post4,59.93346176876622,2024-11-12 16h42.55.329090 -0800,
48,0,48,[0.012037037037037037],[0.13796296296296295],[1],[0],[0],[2.401587899774313],,,,1,0,1,0,48,0,48,0,482.7043484002352,,,,,,,,,,,,482.68885190039873,482.7043484002352,0.0002821004018187523,482.7043484002352,484.6893579000607,484.6893579000607,485.0912667000666,2,normal,0.401587899774313,[0.012037037037037037],[0.13796296296296295],[1],[0],[0],[2.401587899774313],485.09178839996457,485.10633260011673,486.32502240035683,,,,,,,,,,567241,001,2024-11-12_16h42.50.900,Foreperiod_task,2024.2.1post4,59.93346176876622,2024-11-12 16h42.55.329090 -0800,
49,0,49,[0.012037037037037037],[0.13796296296296295],[1],[0],[0],[2.351924399845302],,,,1,0,1,0,49,0,49,0,486.34072559978813,,,,,,,,,,,,486.32533590029925,486.34072559978813,0.0003133993595838547,486.34072559978813,488.3256951998919,488.3256951998919,488.67812569998205,2,normal,0.3519243998453021,[0.012037037037037037],[0.13796296296296295],[1],[0],[0],[2.351924399845302],488.6785324001685,488.69267100002617,489.91116760019213,,,,,,,,,,567241,001,2024-11-12_16h42.50.900,Foreperiod_task,2024.2.1post4,59.93346176876622,2024-11-12 16h42.55.329090 -0800,
50,0,50,[0.012037037037037037],[0.13796296296296295],[1],[0],[0],[2.318475699983537],,,,1,0,1,0,50,0,50,0,489.9270448004827,,,,,,,,,,,,489.9114605002105,489.9270448004827,0.000299699604511261,489.9270448004827,491.9121022997424,491.9121022997424,492.2310985000804,2,normal,0.3184756999835372,[0.012037037037037037],[0.13796296296296295],[1],[0],[0],[2.318475699983537],492.2316847005859,492.2458627000451,493.64743220061064,,,,,,,,,,567241,001,2024-11-12_16h42.50.900,Foreperiod_task,2024.2.1post4,59.93346176876622,2024-11-12 16h42.55.329090 -0800,
51,0,51,[0.009259259259259259],[0.13796296296296295],[1],[0],[0],[2.3682409999892116],,,,1,0,1,0,51,0,51,0,493.6634649997577,,,,,,,,,,,,493.6477100998163,493.6634649997577,0.0002854997292160988,493.6634649997577,495.6485294997692,495.6485294997692,496.01665720064193,2,normal,0.36824099998921156,[0.009259259259259259],[0.13796296296296295],[1],[0],[0],[2.3682409999892116],496.01709240023047,496.03205410018563,497.5005541006103,,,,,,,,,,567241,001,2024-11-12_16h42.50.900,Foreperiod_task,2024.2.1post4,59.93346176876622,2024-11-12 16h42.55.329090 -0800,
52,0,52,[0.009259259259259259],[0.13796296296296295],[1],[0],[0],[2.4848242001608014],,,,1,0,1,0,52,0,52,0,497.5167001998052,,,,,,,,,,,,497.5008147004992,497.5167001998052,0.0002685999497771263,497.5167001998052,499.50174139998853,499.50174139998853,499.98642810061574,2,normal,0.4848242001608014,[0.009259259259259259],[0.13796296296296295],[1],[0],[0],[2.4848242001608014],499.98683900013566,500.0019960999489,501.5206979997456,,,,,,,,,,567241,001,2024-11-12_16h42.50.900,Foreperiod_task,2024.2.1post4,59.93346176876622,2024-11-12 16h42.55.329090 -0800,
53,0,53,[0.009259259259259259],[0.13796296296296295],[1],[0],[0],[0.8170110005885363],,,,1,0,1,0,53,0,53,0,501.5365573000163,,,,,,,,,,,,501.52098110038787,501.5365573000163,0.0002899998798966408,501.5365573000163,502.02034679986537,502.02034679986537,502.3389340005815,0.5,normal,0.31701100058853626,[0.009259259259259259],[0.13796296296296295],[1],[0],[0],[0.8170110005885363],502.33942100033164,502.3539810003713,503.8392633004114,502.85416270047426,,,,,,,,,567241,001,2024-11-12_16h42.50.900,Foreperiod_task,2024.2.1post4,59.93346176876622,2024-11-12 16h42.55.329090 -0800,
54,0,54,[0.009259259259259259],[0.13796296296296295],[1],[0],[0],[0.9495174000039697],,,,1,0,1,0,54,0,54,0,503.85533070005476,,,,,,,,,,,,503.83952300064266,503.85533070005476,0.0002703005447983742,503.85533070005476,504.3390456000343,504.3390456000343,504.7898484999314,0.5,normal,0.44951740000396967,[0.009259259259259259],[0.13796296296296295],[1],[0],[0],[0.9495174000039697],504.79025899991393,504.80640850029886,506.0910069998354,505.30650340020657,,,,,,,,,567241,001,2024-11-12_16h42.50.900,Foreperiod_task,2024.2.1post4,59.93346176876622,2024-11-12 16h42.55.329090 -0800,
55,0,55,[0.009259259259259259],[0.13796296296296295],[1],[0],[0],[2.3021287992596626],,,,1,0,1,0,55,0,55,0,506.1070782998577,,,,,,,,,,,,506.0913209002465,506.1070782998577,0.0003240993246436119,506.1070782998577,508.0920387003571,508.0920387003571,508.3941715005785,2,normal,0.30212879925966263,[0.009259259259259259],[0.13796296296296295],[1],[0],[0],[2.3021287992596626],508.3945612004027,508.4091830002144,509.99448760040104,,,,,,,,,,567241,001,2024-11-12_16h42.50.900,Foreperiod_task,2024.2.1post4,59.93346176876622,2024-11-12 16h42.55.329090 -0800,
56,0,56,[0.009259259259259259],[0.13796296296296295],[1],[0],[0],[2.28502899967134],,,,1,0,1,0,56,0,56,0,510.01029659993947,,,,,,,,,,,,509.99476560018957,510.01029659993947,0.0002859998494386673,510.01029659993947,511.9954594997689,511.9954594997689,512.2805952997878,2,normal,0.28502899967134,[0.009259259259259259],[0.13796296296296295],[1],[0],[0],[2.28502899967134],512.2812339002267,512.2955614998937,513.8645128998905,,,,,,,,,,567241,001,2024-11-12_16h42.50.900,Foreperiod_task,2024.2.1post4,59.93346176876622,2024-11-12 16h42.55.329090 -0800,
57,0,57,[0.009259259259259259],[0.13796296296296295],[1],[0],[0],[1.584133199416101],,,,1,0,1,0,57,0,57,0,513.8804195998237,,,,,,,,,,,,513.8648259006441,513.8804195998237,0.0003212001174688339,513.8804195998237,515.0979487998411,515.0979487998411,515.4497129004449,1.228261284855046,surprise,0.35587191456105494,[0.009259259259259259],[0.13796296296296295],[1],[0],[0],[1.584133199416101],515.4501692000777,515.4649756997824,516.832472300157,516.6988738998771,,,,,,,,,567241,001,2024-11-12_16h42.50.900,Foreperiod_task,2024.2.1post4,59.93346176876622,2024-11-12 16h42.55.329090 -0800,
58,0,58,[0.009259259259259259],[0.13796296296296295],[1],[0],[0],[0.9352743001654744],,,,1,0,1,0,58,0,58,0,516.8487383006141,,,,,,,,,,,,516.8325720997527,516.8487383006141,9.8399817943573e-05,516.8487383006141,517.333469199948,517.333469199948,517.7685820003971,0.5,normal,0.4352743001654744,[0.009259259259259259],[0.13796296296296295],[1],[0],[0],[0.9352743001654744],517.7690563006327,517.7835813006386,519.2855877997354,518.2840176001191,,,,,,,,,567241,001,2024-11-12_16h42.50.900,Foreperiod_task,2024.2.1post4,59.93346176876622,2024-11-12 16h42.55.329090 -0800,
59,0,59,[0.009259259259259259],[0.13796296296296295],[1],[0],[0],[2.2838677000254393],,,,1,0,1,0,59,0,59,0,519.3016039002687,,,,,,,,,,,,519.2858667997643,519.3016039002687,0.0002870000898838043,519.3016039002687,521.2862748000771,521.2862748000771,521.5703031998128,2,normal,0.28386770002543926,[0.009259259259259259],[0.13796296296296295],[1],[0],[0],[2.2838677000254393],521.5705927005038,521.5868565002456,522.871983599849,,,,,,,,,,567241,001,2024-11-12_16h42.50.900,Foreperiod_task,2024.2.1post4,59.93346176876622,2024-11-12 16h42.55.329090 -0800,
60,0,60,[0.009259259259259259],[0.13796296296296295],[1],[0],[0],[2.3014882998540998],,,,1,0,1,0,60,0,60,0,522.8877683002502,,,,,,,,,,,,522.8722668001428,522.8877683002502,0.00029159989207983017,522.8877683002502,524.8728392999619,524.8728392999619,525.1745343003422,2,normal,0.30148829985409975,[0.009259259259259259],[0.13796296296296295],[1],[0],[0],[2.3014882998540998],525.1751273004338,525.1898982999846,526.607389700599,,,,,,,,,,567241,001,2024-11-12_16h42.50.900,Foreperiod_task,2024.2.1post4,59.93346176876622,2024-11-12 16h42.55.329090 -0800,
61,0,61,[0.009259259259259259],[0.14537037037037037],[1],[0],[0],[1.0182103998959064],,,,1,0,1,0,61,0,61,0,526.624166100286,,,,,,,,,,,,526.6075857002288,526.624166100286,0.00019919965416193008,526.624166100286,527.108480900526,527.108480900526,527.6265153000131,0.5,normal,0.5182103998959064,[0.009259259259259259],[0.14537037037037037],[1],[0],[0],[1.0182103998959064],527.6268874006346,527.6416506003588,529.2270018002018,528.1423041000962,,,,,,,,,567241,001,2024-11-12_16h42.50.900,Foreperiod_task,2024.2.1post4,59.93346176876622,2024-11-12 16h42.55.329090 -0800,
62,0,62,[0.009259259259259259],[0.14537037037037037],[1],[0],[0],[2.3354112999513745],,,,1,0,1,0,62,0,62,0,529.2430052002892,,,,,,,,,,,,529.2272911006585,529.2430052002892,0.00029770005494356155,529.2430052002892,531.228074000217,531.228074000217,531.5636633997783,2,normal,0.33541129995137453,[0.009259259259259259],[0.14537037037037037],[1],[0],[0],[2.3354112999513745],531.5641635004431,531.5784897003323,532.7969963997602,,,,,,,,,,567241,001,2024-11-12_16h42.50.900,Foreperiod_task,2024.2.1post4,59.93346176876622,2024-11-12 16h42.55.329090 -0800,
63,0,63,[0.009259259259259259],[0.14537037037037037],[1],[0],[0],[0.8338990993797779],,,,1,0,1,0,63,0,63,0,532.8127624997869,,,,,,,,,,,,532.7973233005032,532.8127624997869,0.0003216993063688278,532.8127624997869,533.296449800022,533.296449800022,533.6320134997368,0.5,normal,0.3338990993797779,[0.009259259259259259],[0.14537037037037037],[1],[0],[0],[0.8338990993797779],533.6324092000723,533.6467514997348,535.2156378999352,534.1471568997949,,,,,,,,,567241,001,2024-11-12_16h42.50.900,Foreperiod_task,2024.2.1post4,59.93346176876622,2024-11-12 16h42.55.329090 -0800,
64,0,64,[0.009259259259259259],[0.14537037037037037],[1],[0],[0],[2.4012272004038095],,,,1,0,1,0,64,0,64,0,535.2314768005162,,,,,,,,,,,,535.2158959005028,535.2314768005162,0.00026610027998685837,535.2314768005162,537.216424100101,537.216424100101,537.6177551997826,2,normal,0.40122720040380955,[0.009259259259259259],[0.14537037037037037],[1],[0],[0],[2.4012272004038095],537.6180702997372,537.6333606997505,539.1346028000116,,,,,,,,,,567241,001,2024-11-12_16h42.50.900,Foreperiod_task,2024.2.1post4,59.93346176876622,2024-11-12 16h42.55.329090 -0800,
65,0,65,[0.009259259259259259],[0.14537037037037037],[1],[0],[0],[2.3521301997825503],,,,1,0,1,0,65,0,65,0,539.1508526001126,,,,,,,,,,,,539.1347011001781,539.1508526001126,9.990017861127853e-05,539.1508526001126,541.1363172000274,541.1363172000274,541.4874069998041,2,normal,0.35213019978255033,[0.009259259259259259],[0.14537037037037037],[1],[0],[0],[2.3521301997825503],541.4877093005925,541.503396300599,543.1386580998078,,,,,,,,,,567241,001,2024-11-12_16h42.50.900,Foreperiod_task,2024.2.1post4,59.93346176876622,2024-11-12 16h42.55.329090 -0800,
66,0,66,[0.009259259259259259],[0.14537037037037037],[1],[0],[0],[2.2685821000486612],,,,1,0,1,0,66,0,66,0,543.1546601997688,,,,,,,,,,,,543.1389166004956,543.1546601997688,0.00026530027389526367,543.1546601997688,545.1397469006479,545.1397469006479,545.4082995001227,2,normal,0.26858210004866123,[0.009259259259259259],[0.14537037037037037],[1],[0],[0],[2.2685821000486612],545.4087926000357,545.4234814001247,546.8418894000351,,,,,,,,,,567241,001,2024-11-12_16h42.50.900,Foreperiod_task,2024.2.1post4,59.93346176876622,2024-11-12 16h42.55.329090 -0800,
67,0,67,[0.009259259259259259],[0.14537037037037037],[1],[0],[0],[2.3182450998574495],,,,1,0,1,0,67,0,67,0,546.857823099941,,,,,,,,,,,,546.8422225005925,546.857823099941,0.0003318004310131073,546.857823099941,548.8428004002199,548.8428004002199,549.1611719001085,2,normal,0.31824509985744953,[0.009259259259259259],[0.14537037037037037],[1],[0],[0],[2.3182450998574495],549.1615495998412,549.1760474005714,550.6950889006257,,,,,,,,,,567241,001,2024-11-12_16h42.50.900,Foreperiod_task,2024.2.1post4,59.93346176876622,2024-11-12 16h42.55.329090 -0800,
68,0,68,[0.009259259259259259],[0.14537037037037037],[1],[0],[0],[2.3180598001927137],,,,1,0,1,0,68,0,68,0,550.7111248001456,,,,,,,,,,,,550.6953730005771,550.7111248001456,0.00030750036239624023,550.7111248001456,552.6960797002539,552.6960797002539,553.0141387004405,2,normal,0.31805980019271374,[0.009259259259259259],[0.14537037037037037],[1],[0],[0],[2.3180598001927137],553.0144837005064,553.0291030006483,554.6484507005662,,,,,,,,,,567241,001,2024-11-12_16h42.50.900,Foreperiod_task,2024.2.1post4,59.93346176876622,2024-11-12 16h42.55.329090 -0800,
69,0,69,[0.009259259259259259],[0.14537037037037037],[1],[0],[0],[0.9836433995515108],,,,1,0,1,0,69,0,69,0,554.6635765004903,,,,,,,,,,,,554.6487619997934,554.6635765004903,0.0003177998587489128,554.6635765004903,555.148032899946,555.148032899946,555.633054099977,0.5,normal,0.4836433995515108,[0.009259259259259259],[0.14537037037037037],[1],[0],[0],[0.9836433995515108],555.6334738004953,555.6484090005979,556.9504642002285,556.1489951005206,,,,,,,,,567241,001,2024-11-12_16h42.50.900,Foreperiod_task,2024.2.1post4,59.93346176876622,2024-11-12 16h42.55.329090 -0800,
70,0,70,[0.009259259259259259],[0.14537037037037037],[1],[0],[0],[2.3849690994247794],,,,1,0,1,0,70,0,70,0,556.9661985002458,,,,,,,,,,,,556.9507443998009,556.9661985002458,0.00028849951922893524,556.9661985002458,558.9510936997831,558.9510936997831,559.3365307999775,2,normal,0.3849690994247794,[0.009259259259259259],[0.14537037037037037],[1],[0],[0],[2.3849690994247794],559.3369844006374,559.3513762997463,560.8202178003266,,,,,,,,,,567241,001,2024-11-12_16h42.50.900,Foreperiod_task,2024.2.1post4,59.93346176876622,2024-11-12 16h42.55.329090 -0800,
71,0,71,[0.009259259259259259],[0.14537037037037037],[1],[0],[0],[0.9009659998118877],,,,1,0,1,0,71,0,71,0,560.8360115000978,,,,,,,,,,,,560.8205417003483,560.8360115000978,0.0003276001662015915,560.8360115000978,561.3198108999059,561.3198108999059,561.7225871998817,0.5,normal,0.40096599981188774,[0.009259259259259259],[0.14537037037037037],[1],[0],[0],[0.9009659998118877],561.722998900339,561.7364146001637,562.9883940005675,562.2372852005064,,,,,,,,,567241,001,2024-11-12_16h42.50.900,Foreperiod_task,2024.2.1post4,59.93346176876622,2024-11-12 16h42.55.329090 -0800,
72,0,72,[0.009259259259259259],[0.14537037037037037],[1],[0],[0],[2.284961000084877],,,,1,0,1,0,72,0,72,0,563.0044048000127,,,,,,,,,,,,562.9886460006237,563.0044048000127,0.0002582995221018791,563.0044048000127,564.9894620999694,564.9894620999694,565.2743926998228,2,normal,0.284961000084877,[0.009259259259259259],[0.14537037037037037],[1],[0],[0],[2.284961000084877],565.2746924003586,565.2896158006042,566.5582093000412,,,,,,,,,,567241,001,2024-11-12_16h42.50.900,Foreperiod_task,2024.2.1post4,59.93346176876622,2024-11-12 16h42.55.329090 -0800,
