thisN,thisTrialN,thisRepN,mouse.x,mouse.y,mouse.leftButton,mouse.midButton,mouse.rightButton,mouse.time,key_resp_5.keys,key_resp_5.rt,key_resp_5.duration,trials_3.thisRepN,trials_3.thisTrialN,trials_3.thisN,trials_3.thisIndex,trials_2.thisRepN,trials_2.thisTrialN,trials_2.thisN,trials_2.thisIndex,thisRow.t,notes,Welcome_Screen.started,Welcome_Text.started,mouse_2.started,Welcome_Screen.stopped,mouse_2.x,mouse_2.y,mouse_2.leftButton,mouse_2.midButton,mouse_2.rightButton,mouse_2.time,Trial_2.started,PLUS_FP.started,mouse.started,AVG.started,Photodiode_plus.started,Photodiode_plus.stopped,PLUS_FP.stopped,polygon.started,Photodiode_polygon.started,Photodiode_polygon.stopped,Trial_2.stopped,FixDur,Type,RT,trials_2.mouse.x,trials_2.mouse.y,trials_2.mouse.leftButton,trials_2.mouse.midButton,trials_2.mouse.rightButton,trials_2.mouse.time,Intertrial_Period.started,Photodiode_2.started,Photodiode_2.stopped,Intertrial_Period.stopped,text.started,BREAK.started,Instructions.started,key_resp_5.started,BREAK.stopped,trials_3.key_resp_5.keys,trials_3.key_resp_5.rt,trials_3.key_resp_5.duration,participant,session,date,expName,psychopyVersion,frameRate,expStart,
,,,,,,,,,,,,,,,,,,,,,,0.0029632002115249634,0.017591100186109543,0.002804599702358246,34.865246900357306,[-0.5074074074074074],[0.2574074074074074],[1],[0],[0],[34.86162310000509],,,,,,,,,,,,,,,,,,,,,,,,,,,,,,,,,TestPilot,001,2024-11-13_11h07.18.248,Foreperiod_task,2024.2.1post4,60.094312214030396,2024-11-13 11h07.33.478345 -0800,
0,0,0,[-0.8888888888888888],[0.4564814814814815],[1],[0],[0],[2.132265199907124],,,,0,0,0,0,0,0,0,0,34.879708600230515,,,,,,,,,,,,34.86707360018045,34.879708600230515,0.0017228005453944206,34.879708600230515,34.879708600230515,35.0808265004307,35.38079670071602,35.38079670071602,35.38079670071602,35.397583700716496,36.99998250044882,0.5,normal,1.632265199907124,[-0.8888888888888888],[0.4564814814814815],[1],[0],[0],[2.132265199907124],37.000319600105286,37.01544040068984,37.31562200002372,38.317156500183046,,,,,,,,,TestPilot,001,2024-11-13_11h07.18.248,Foreperiod_task,2024.2.1post4,60.094312214030396,2024-11-13 11h07.33.478345 -0800,
1,0,1,[-0.8888888888888888],[0.4564814814814815],[1],[0],[0],[1.1006739996373653],,,,0,0,0,0,1,0,1,0,38.33316669985652,,,,,,,,,,,,38.317442500032485,38.33316669985652,0.00030430033802986145,38.33316669985652,38.33316669985652,38.53361630067229,38.81693929992616,38.81693929992616,38.81693929992616,38.83354980032891,39.418821800500154,0.5,normal,0.6006739996373653,[-0.8888888888888888],[0.4564814814814815],[1],[0],[0],[1.1006739996373653],39.41923310048878,39.434124500490725,39.73444520030171,40.85260950028896,,,,,,,,,TestPilot,001,2024-11-13_11h07.18.248,Foreperiod_task,2024.2.1post4,60.094312214030396,2024-11-13 11h07.33.478345 -0800,
2,0,2,[-0.8787037037037037],[0.4564814814814815],[1],[0],[0],[1.567968400195241],,,,0,0,0,0,2,0,2,0,40.86872160062194,,,,,,,,,,,,40.85288800019771,40.86872160062194,0.00029460061341524124,40.86872160062194,40.86872160062194,41.06873160041869,41.35241500008851,41.35241500008851,41.35241500008851,41.369009899906814,42.42160450015217,0.5,normal,1.067968400195241,[-0.8787037037037037],[0.4564814814814815],[1],[0],[0],[1.567968400195241],42.42197259981185,42.43594610039145,42.736809600144625,43.87123730033636,,,,,,,,,TestPilot,001,2024-11-13_11h07.18.248,Foreperiod_task,2024.2.1post4,60.094312214030396,2024-11-13 11h07.33.478345 -0800,
3,0,3,[-0.8787037037037037],[0.4564814814814815],[1],[0],[0],[2.4524482004344463],,,,0,0,0,0,3,0,3,0,43.88739070016891,,,,,,,,,,,,43.87139660026878,43.88739070016891,0.00016949977725744247,43.88739070016891,43.88739070016891,44.08762890007347,45.87307540047914,45.87307540047914,45.87307540047914,45.889454499818385,46.324456800706685,2,normal,0.45244820043444633,[-0.8787037037037037],[0.4564814814814815],[1],[0],[0],[2.4524482004344463],46.32477470021695,46.340060899965465,46.64017560053617,47.99137909989804,,,,,,,,,TestPilot,001,2024-11-13_11h07.18.248,Foreperiod_task,2024.2.1post4,60.094312214030396,2024-11-13 11h07.33.478345 -0800,
4,0,4,[-0.6675925925925926],[0.45185185185185184],[1],[0],[0],[0.9509601993486285],,,,0,0,0,0,4,0,4,0,48.00746749993414,,,,,,,,,,,,47.99153140000999,48.00746749993414,0.00016089994460344315,48.00746749993414,48.00746749993414,48.207676500082016,48.49168200045824,48.49168200045824,48.49168200045824,48.508398400619626,48.94330430030823,0.5,normal,0.4509601993486285,[-0.6675925925925926],[0.45185185185185184],[1],[0],[0],[0.9509601993486285],48.943776700645685,48.95890269987285,49.25853030011058,50.27670569997281,,,,,,,,,TestPilot,001,2024-11-13_11h07.18.248,Foreperiod_task,2024.2.1post4,60.094312214030396,2024-11-13 11h07.33.478345 -0800,
5,0,5,[-0.6675925925925926],[0.45185185185185184],[1],[0],[0],[1.001066300086677],,,,0,0,0,0,5,0,5,0,50.29325690027326,,,,,,,,,,,,50.27694500051439,50.29325690027326,0.0002535991370677948,50.29325690027326,50.29325690027326,50.49328630045056,50.776994300074875,50.776994300074875,50.776994300074875,50.79362790007144,51.278752100653946,0.5,normal,0.5010663000866771,[-0.6675925925925926],[0.45185185185185184],[1],[0],[0],[1.001066300086677],51.27925940044224,51.2940468005836,51.5942497998476,52.94621190056205,,,,,,,,,TestPilot,001,2024-11-13_11h07.18.248,Foreperiod_task,2024.2.1post4,60.094312214030396,2024-11-13 11h07.33.478345 -0800,
6,0,6,[-0.6675925925925926],[0.45185185185185184],[1],[0],[0],[1.0339837996289134],,,,0,0,0,0,6,0,6,0,52.96234340034425,,,,,,,,,,,,52.946491500362754,52.96234340034425,0.00028380006551742554,52.96234340034425,52.96234340034425,53.16216820012778,53.445474000647664,53.445474000647664,53.445474000647664,53.462269900366664,53.981380300596356,0.5,normal,0.5339837996289134,[-0.6675925925925926],[0.45185185185185184],[1],[0],[0],[1.0339837996289134],53.98193780053407,53.996220000088215,54.29651920031756,55.38134890049696,,,,,,,,,TestPilot,001,2024-11-13_11h07.18.248,Foreperiod_task,2024.2.1post4,60.094312214030396,2024-11-13 11h07.33.478345 -0800,
7,0,7,[-0.6675925925925926],[0.45185185185185184],[1],[0],[0],[2.318465800024569],,,,0,0,0,0,7,0,7,0,55.39739360008389,,,,,,,,,,,,55.381626300513744,55.39739360008389,0.0002927994355559349,55.39739360008389,55.39739360008389,55.59757740050554,57.38239650055766,57.38239650055766,57.38239650055766,57.39917530026287,57.700933599844575,2,normal,0.31846580002456903,[-0.6675925925925926],[0.45185185185185184],[1],[0],[0],[2.318465800024569],57.701420799829066,57.715994000434875,58.016259900294244,59.233696199953556,,,,,,,,,TestPilot,001,2024-11-13_11h07.18.248,Foreperiod_task,2024.2.1post4,60.094312214030396,2024-11-13 11h07.33.478345 -0800,
8,0,8,[-0.6675925925925926],[0.45185185185185184],[1],[0],[0],[2.3856041999533772],,,,0,0,0,0,8,0,8,0,59.25052050035447,,,,,,,,,,,,59.23383540008217,59.25052050035447,0.0001471005380153656,59.25052050035447,59.25052050035447,59.45046960003674,61.23496550042182,61.23496550042182,61.23496550042182,61.251407800242305,61.62010880000889,2,normal,0.38560419995337725,[-0.6675925925925926],[0.45185185185185184],[1],[0],[0],[2.3856041999533772],61.62071010004729,61.63591780047864,61.93626810051501,62.887664900161326,,,,,,,,,TestPilot,001,2024-11-13_11h07.18.248,Foreperiod_task,2024.2.1post4,60.094312214030396,2024-11-13 11h07.33.478345 -0800,
9,0,9,[-0.6675925925925926],[0.45185185185185184],[1],[0],[0],[2.3189415000379086],,,,0,0,0,0,9,0,9,0,62.903568900190294,,,,,,,,,,,,62.88794060051441,62.903568900190294,0.00030159950256347656,62.903568900190294,62.903568900190294,63.10374990012497,64.88877429999411,64.88877429999411,64.88877429999411,64.90585790015757,65.2077048998326,2,normal,0.31894150003790855,[-0.6675925925925926],[0.45185185185185184],[1],[0],[0],[2.3189415000379086],65.2082309005782,65.22150720003992,65.52241310011595,66.62352150026709,,,,,,,,,TestPilot,001,2024-11-13_11h07.18.248,Foreperiod_task,2024.2.1post4,60.094312214030396,2024-11-13 11h07.33.478345 -0800,
10,0,10,[-0.6370370370370371],[0.5],[1],[0],[0],[1.034799600020051],,,,0,0,0,0,10,0,10,0,66.6398991998285,,,,,,,,,,,,66.62364360038191,66.6398991998285,0.00012829992920160294,66.6398991998285,66.6398991998285,66.84033360052854,67.12394310068339,67.12394310068339,67.12394310068339,67.14049889985472,67.65920780040324,0.5,normal,0.534799600020051,[-0.6370370370370371],[0.5],[1],[0],[0],[1.034799600020051],67.65965929999948,67.67429880052805,67.9744877004996,69.00942610017955,,,,,,,,,TestPilot,001,2024-11-13_11h07.18.248,Foreperiod_task,2024.2.1post4,60.094312214030396,2024-11-13 11h07.33.478345 -0800,
11,0,11,[-0.6222222222222222],[0.4666666666666667],[1],[0],[0],[1.0512447003275156],,,,0,0,0,0,11,0,11,0,69.02541700005531,,,,,,,,,,,,69.00975870061666,69.02541700005531,0.0003405008465051651,69.02541700005531,69.02541700005531,69.22545630019158,69.50924019981176,69.50924019981176,69.50924019981176,69.52585780061781,70.06199409998953,0.5,normal,0.5512447003275156,[-0.6222222222222222],[0.4666666666666667],[1],[0],[0],[1.0512447003275156],70.06269829999655,70.0764025002718,70.37676070071757,71.6783386003226,,,,,,,,,TestPilot,001,2024-11-13_11h07.18.248,Foreperiod_task,2024.2.1post4,60.094312214030396,2024-11-13 11h07.33.478345 -0800,
12,0,12,[-0.6222222222222222],[0.4666666666666667],[1],[0],[0],[2.3185414001345634],,,,0,0,0,0,12,0,12,0,71.69428149983287,,,,,,,,,,,,71.67863630037755,71.69428149983287,0.000315200537443161,71.69428149983287,71.69428149983287,71.89464720059186,73.6792863002047,73.6792863002047,73.6792863002047,73.6960529005155,73.99813420046121,2,normal,0.31854140013456345,[-0.6222222222222222],[0.4666666666666667],[1],[0],[0],[2.3185414001345634],73.99870519991964,74.01310000009835,74.3131698006764,75.19768440071493,,,,,,,,,TestPilot,001,2024-11-13_11h07.18.248,Foreperiod_task,2024.2.1post4,60.094312214030396,2024-11-13 11h07.33.478345 -0800,
13,0,13,[-0.6222222222222222],[0.4666666666666667],[1],[0],[0],[2.302159900777042],,,,0,0,0,0,13,0,13,0,75.21338979993016,,,,,,,,,,,,75.19791290070862,75.21338979993016,0.0002418002113699913,75.21338979993016,75.21338979993016,75.41410700045526,77.19892300013453,77.19892300013453,77.19892300013453,77.21558510046452,77.50084970053285,2,normal,0.3021599007770419,[-0.6222222222222222],[0.4666666666666667],[1],[0],[0],[2.302159900777042],77.5012682005763,77.51559349987656,77.81604880001396,78.85082199983299,,,,,,,,,TestPilot,001,2024-11-13_11h07.18.248,Foreperiod_task,2024.2.1post4,60.094312214030396,2024-11-13 11h07.33.478345 -0800,
14,0,14,[-0.6222222222222222],[0.4666666666666667],[1],[0],[0],[2.4690298000350595],,,,0,0,0,0,14,0,14,0,78.866869000718,,,,,,,,,,,,78.85110910050571,78.866869000718,0.00030320044606924057,78.866869000718,78.866869000718,79.0671613002196,80.85192870069295,80.85192870069295,80.85192870069295,80.86863100063056,81.32108089979738,2,normal,0.46902980003505945,[-0.6222222222222222],[0.4666666666666667],[1],[0],[0],[2.4690298000350595],81.32165910024196,81.3356917006895,81.63551599998027,82.8209334006533,,,,,,,,,TestPilot,001,2024-11-13_11h07.18.248,Foreperiod_task,2024.2.1post4,60.094312214030396,2024-11-13 11h07.33.478345 -0800,
15,0,15,[-0.6222222222222222],[0.4666666666666667],[1],[0],[0],[0.9504827000200748],,,,0,0,0,0,15,0,15,0,82.83690100070089,,,,,,,,,,,,82.82121740002185,82.83690100070089,0.0003105001524090767,82.83690100070089,82.83690100070089,83.03694020025432,83.32065710052848,83.32065710052848,83.32065710052848,83.33726490009576,83.77251469995826,0.5,normal,0.45048270002007484,[-0.6222222222222222],[0.4666666666666667],[1],[0],[0],[0.9504827000200748],83.77292839996517,83.7876070998609,84.0878689000383,85.35640950035304,,,,,,,,,TestPilot,001,2024-11-13_11h07.18.248,Foreperiod_task,2024.2.1post4,60.094312214030396,2024-11-13 11h07.33.478345 -0800,
16,0,16,[-0.6222222222222222],[0.4666666666666667],[1],[0],[0],[1.2507869992405176],,,,0,0,0,0,16,0,16,0,85.37180100008845,,,,,,,,,,,,85.3567048003897,85.37180100008845,0.0003054998815059662,85.37180100008845,85.37180100008845,85.57213950064033,85.8560637999326,85.8560637999326,85.8560637999326,85.87272550072521,86.60842100065202,0.5,normal,0.7507869992405176,[-0.6222222222222222],[0.4666666666666667],[1],[0],[0],[1.2507869992405176],86.60887760017067,86.62360120005906,86.92366770002991,88.02553670015186,,,,,,,,,TestPilot,001,2024-11-13_11h07.18.248,Foreperiod_task,2024.2.1post4,60.094312214030396,2024-11-13 11h07.33.478345 -0800,
17,0,17,[-0.6222222222222222],[0.4666666666666667],[1],[0],[0],[0.9001901997253299],,,,0,0,0,0,17,0,17,0,88.04111130069941,,,,,,,,,,,,88.02585600037128,88.04111130069941,0.0003324998542666435,88.04111130069941,88.04111130069941,88.2413910003379,88.52498139999807,88.52498139999807,88.52498139999807,88.54178590048105,88.9267803998664,0.5,normal,0.4001901997253299,[-0.6222222222222222],[0.4666666666666667],[1],[0],[0],[0.9001901997253299],88.92716309987009,88.94194470066577,89.24221410043538,90.59396000020206,,,,,,,,,TestPilot,001,2024-11-13_11h07.18.248,Foreperiod_task,2024.2.1post4,60.094312214030396,2024-11-13 11h07.33.478345 -0800,
18,0,18,[-0.6222222222222222],[0.4666666666666667],[1],[0],[0],[2.318729399703443],,,,0,0,0,0,18,0,18,0,90.61006790027022,,,,,,,,,,,,90.5942280003801,90.61006790027022,0.0002782996743917465,90.61006790027022,90.61006790027022,90.81028799992055,92.5949463006109,92.5949463006109,92.5949463006109,92.6116523006931,92.91381390020251,2,normal,0.31872939970344305,[-0.6222222222222222],[0.4666666666666667],[1],[0],[0],[2.318729399703443],92.9142760001123,92.92883970029652,93.22874820046127,94.49717400036752,,,,,,,,,TestPilot,001,2024-11-13_11h07.18.248,Foreperiod_task,2024.2.1post4,60.094312214030396,2024-11-13 11h07.33.478345 -0800,
19,0,19,[-0.6222222222222222],[0.4666666666666667],[1],[0],[0],[0.8339892998337746],,,,0,0,0,0,19,0,19,0,94.51326100062579,,,,,,,,,,,,94.49740700051188,94.51326100062579,0.00024820026010274887,94.51326100062579,94.51326100062579,94.71338750049472,94.99700199998915,94.99700199998915,94.99700199998915,95.01368540059775,95.33230360038579,0.5,normal,0.33398929983377457,[-0.6222222222222222],[0.4666666666666667],[1],[0],[0],[0.8339892998337746],95.33286979980767,95.34750690031797,95.64746140036732,96.78245430067182,,,,,,,,,TestPilot,001,2024-11-13_11h07.18.248,Foreperiod_task,2024.2.1post4,60.094312214030396,2024-11-13 11h07.33.478345 -0800,
20,0,20,[-0.6222222222222222],[0.4666666666666667],[1],[0],[0],[2.351771400310099],,,,0,0,0,0,20,0,20,0,96.79850499983877,,,,,,,,,,,,96.78273530025035,96.79850499983877,0.0002972995862364769,96.79850499983877,96.79850499983877,96.9990046005696,98.78341659996659,98.78341659996659,98.78341659996659,98.80011600069702,99.13537729997188,2,normal,0.3517714003100991,[-0.6222222222222222],[0.4666666666666667],[1],[0],[0],[2.351771400310099],99.13578409980983,99.15050280001014,99.45060590002686,100.50221659988165,,,,,,,,,TestPilot,001,2024-11-13_11h07.18.248,Foreperiod_task,2024.2.1post4,60.094312214030396,2024-11-13 11h07.33.478345 -0800,
21,0,21,[-0.6222222222222222],[0.4666666666666667],[1],[0],[0],[0.8670848999172449],,,,0,0,0,0,21,0,21,0,100.51828160043806,,,,,,,,,,,,100.50251770019531,100.51828160043806,0.00031999964267015457,100.51828160043806,100.51828160043806,100.71834059990942,101.00196539983153,101.00196539983153,101.00196539983153,101.01875430066139,101.37038329988718,0.5,normal,0.3670848999172449,[-0.6222222222222222],[0.4666666666666667],[1],[0],[0],[0.8670848999172449],101.37077660020441,101.38561649993062,101.68583209998906,102.9876339007169,,,,,,,,,TestPilot,001,2024-11-13_11h07.18.248,Foreperiod_task,2024.2.1post4,60.094312214030396,2024-11-13 11h07.33.478345 -0800,
22,0,22,[-0.6101851851851852],[0.4638888888888889],[1],[0],[0],[2.3346223002299666],,,,0,0,0,0,22,0,22,0,103.00361619982868,,,,,,,,,,,,102.98791659995914,103.00361619982868,0.0002957005053758621,103.00361619982868,103.00361619982868,103.20374790020287,104.98863499984145,104.98863499984145,104.98863499984145,105.0052371006459,105.32332180067897,2,normal,0.33462230022996664,[-0.6101851851851852],[0.4638888888888889],[1],[0],[0],[2.3346223002299666],105.32371489983052,105.3389365002513,105.63929039984941,106.60733850020915,,,,,,,,,TestPilot,001,2024-11-13_11h07.18.248,Foreperiod_task,2024.2.1post4,60.094312214030396,2024-11-13 11h07.33.478345 -0800,
23,0,23,[-0.6101851851851852],[0.4638888888888889],[1],[0],[0],[2.318237000145018],,,,0,0,0,0,23,0,23,0,106.62330290023237,,,,,,,,,,,,106.60760030057281,106.62330290023237,0.0002765003591775894,106.62330290023237,106.62330290023237,106.823496600613,108.60836520045996,108.60836520045996,108.60836520045996,108.62496209982783,108.92660749983042,2,normal,0.3182370001450181,[-0.6101851851851852],[0.4638888888888889],[1],[0],[0],[2.318237000145018],108.92702870070934,108.94190660025924,109.24232840072364,110.49287990015,,,,,,,,,TestPilot,001,2024-11-13_11h07.18.248,Foreperiod_task,2024.2.1post4,60.094312214030396,2024-11-13 11h07.33.478345 -0800,
24,0,24,[-0.6101851851851852],[0.4638888888888889],[1],[0],[0],[0.8020724998787045],,,,0,0,0,0,24,0,24,0,110.50928959995508,,,,,,,,,,,,110.49300369992852,110.50928959995508,0.00012680049985647202,110.50928959995508,110.50928959995508,110.71026800014079,110.99363700021058,110.99363700021058,110.99363700021058,111.01029179990292,111.29578070063144,0.5,normal,0.30207249987870455,[-0.6101851851851852],[0.4638888888888889],[1],[0],[0],[0.8020724998787045],111.29624890070409,111.31061109993607,111.6107176002115,112.87936140038073,,,,,,,,,TestPilot,001,2024-11-13_11h07.18.248,Foreperiod_task,2024.2.1post4,60.094312214030396,2024-11-13 11h07.33.478345 -0800,
25,0,25,[-0.6101851851851852],[0.4638888888888889],[1],[0],[0],[1.4842247990891337],,,,0,0,0,0,25,0,25,0,112.89539050031453,,,,,,,,,,,,112.8796471003443,112.89539050031453,0.0002902001142501831,112.89539050031453,112.89539050031453,113.09546220023185,114.12982620019466,114.12982620019466,114.12982620019466,114.14688330050558,114.36466960050166,1.2356923880411017,surprise,0.24853241104803203,[-0.6101851851851852],[0.4638888888888889],[1],[0],[0],[1.4842247990891337],114.36514780018479,114.37998780049384,114.68031280022115,115.93203710019588,,,,,,,,,TestPilot,001,2024-11-13_11h07.18.248,Foreperiod_task,2024.2.1post4,60.094312214030396,2024-11-13 11h07.33.478345 -0800,
26,0,26,[-0.6101851851851852],[0.4638888888888889],[1],[0],[0],[1.5173689993098378],,,,0,0,0,0,26,0,26,0,115.94795980025083,,,,,,,,,,,,115.9323773002252,115.94795980025083,0.0003482997417449951,115.94795980025083,115.94795980025083,116.14790880028158,117.13226810004562,117.13226810004562,117.13226810004562,117.14892650023103,117.45060790050775,1.1906535415547497,surprise,0.32671545775508815,[-0.6101851851851852],[0.4638888888888889],[1],[0],[0],[1.5173689993098378],117.45108520053327,117.46576269995421,117.76607669983059,119.10187679994851,,,,,,,,,TestPilot,001,2024-11-13_11h07.18.248,Foreperiod_task,2024.2.1post4,60.094312214030396,2024-11-13 11h07.33.478345 -0800,
27,0,27,[-0.6101851851851852],[0.4638888888888889],[1],[0],[0],[2.2511120000854135],,,,0,0,0,0,27,0,27,0,119.11737680062652,,,,,,,,,,,,119.10218240041286,119.11737680062652,0.0003268001601099968,119.11737680062652,119.11737680062652,119.31726630032063,121.10213229991496,121.10213229991496,121.10213229991496,121.11894469987601,121.35418860055506,2,normal,0.25111200008541346,[-0.6101851851851852],[0.4638888888888889],[1],[0],[0],[2.2511120000854135],121.35458800010383,121.36902180034667,121.66855600010604,122.92121150065213,,,,,,,,,TestPilot,001,2024-11-13_11h07.18.248,Foreperiod_task,2024.2.1post4,60.094312214030396,2024-11-13 11h07.33.478345 -0800,
28,0,28,[-0.6101851851851852],[0.4638888888888889],[1],[0],[0],[1.000161999836564],,,,0,0,0,0,28,0,28,0,122.93737530056387,,,,,,,,,,,,122.92150800023228,122.93737530056387,0.0003201998770236969,122.93737530056387,122.93737530056387,123.13711510039866,123.42070330027491,123.42070330027491,123.42070330027491,123.43733470048755,123.92251669988036,0.5,normal,0.5001619998365641,[-0.6101851851851852],[0.4638888888888889],[1],[0],[0],[1.000161999836564],123.92292350064963,123.9378276001662,124.23813420068473,125.15623770002276,,,,,,,,,TestPilot,001,2024-11-13_11h07.18.248,Foreperiod_task,2024.2.1post4,60.094312214030396,2024-11-13 11h07.33.478345 -0800,
29,0,29,[-0.6101851851851852],[0.4638888888888889],[1],[0],[0],[0.816351399756968],,,,0,0,0,0,29,0,29,0,125.1722256001085,,,,,,,,,,,,125.1566018005833,125.1722256001085,0.0003810003399848938,125.1722256001085,125.1722256001085,125.37221990060061,125.65611980017275,125.65611980017275,125.65611980017275,125.67239360045642,125.97357930056751,0.5,normal,0.316351399756968,[-0.6101851851851852],[0.4638888888888889],[1],[0],[0],[0.816351399756968],125.97391040064394,125.98956730030477,126.28968410007656,127.191056500189,,,,,,,,,TestPilot,001,2024-11-13_11h07.18.248,Foreperiod_task,2024.2.1post4,60.094312214030396,2024-11-13 11h07.33.478345 -0800,
30,0,30,[-0.6101851851851852],[0.4638888888888889],[1],[0],[0],[0.7337095998227596],,,,0,0,0,0,30,0,30,0,127.20709940046072,,,,,,,,,,,,127.19132520072162,127.20709940046072,0.00028319936245679855,127.20709940046072,127.20709940046072,127.40717670042068,127.69047010038048,127.69047010038048,127.69047010038048,127.70738080050796,127.92577979993075,0.5,normal,0.23370959982275963,[-0.6101851851851852],[0.4638888888888889],[1],[0],[0],[0.7337095998227596],127.92636159993708,127.94106939993799,128.2413258999586,129.4590148003772,,,,,,,,,TestPilot,001,2024-11-13_11h07.18.248,Foreperiod_task,2024.2.1post4,60.094312214030396,2024-11-13 11h07.33.478345 -0800,
31,0,31,[-0.6101851851851852],[0.4638888888888889],[1],[0],[0],[1.0841886000707746],,,,0,0,0,0,31,0,31,0,129.47552639991045,,,,,,,,,,,,129.45916200056672,129.47552639991045,0.00015360023826360703,129.47552639991045,129.47552639991045,129.67545180022717,129.9596508005634,129.9596508005634,129.9596508005634,129.97616560012102,130.54401150066406,0.5,normal,0.5841886000707746,[-0.6101851851851852],[0.4638888888888889],[1],[0],[0],[1.0841886000707746],130.5443753004074,130.56013180036098,130.86030289996415,131.92830440029502,,,,,,,,,TestPilot,001,2024-11-13_11h07.18.248,Foreperiod_task,2024.2.1post4,60.094312214030396,2024-11-13 11h07.33.478345 -0800,
32,0,32,[-0.6101851851851852],[0.4638888888888889],[1],[0],[0],[0.8173556001856923],,,,0,0,0,0,32,0,32,0,131.94432449992746,,,,,,,,,,,,131.92856790032238,131.94432449992746,0.0002765003591775894,131.94432449992746,131.94432449992746,132.14467300008982,132.4280214998871,132.4280214998871,132.4280214998871,132.44481900054961,132.74674869980663,0.5,normal,0.3173556001856923,[-0.6101851851851852],[0.4638888888888889],[1],[0],[0],[0.8173556001856923],132.7472745999694,132.76188489980996,133.06202040053904,134.26369010005146,,,,,,,,,TestPilot,001,2024-11-13_11h07.18.248,Foreperiod_task,2024.2.1post4,60.094312214030396,2024-11-13 11h07.33.478345 -0800,
33,0,33,[-0.6101851851851852],[0.4638888888888889],[1],[0],[0],[2.251977499574423],,,,0,0,0,0,33,0,33,0,134.279670400545,,,,,,,,,,,,134.26396900042892,134.279670400545,0.00029379967600107193,134.279670400545,134.279670400545,134.479622900486,136.26475590001792,136.26475590001792,136.26475590001792,136.28141610044986,136.51677470002323,2,normal,0.25197749957442284,[-0.6101851851851852],[0.4638888888888889],[1],[0],[0],[2.251977499574423],136.517267299816,136.53085120022297,136.83185440022498,137.96665289998055,,,,,,,,,TestPilot,001,2024-11-13_11h07.18.248,Foreperiod_task,2024.2.1post4,60.094312214030396,2024-11-13 11h07.33.478345 -0800,
34,0,34,[-0.6101851851851852],[0.4638888888888889],[1],[0],[0],[0.8176773004233837],,,,0,0,0,0,34,0,34,0,137.98294739983976,,,,,,,,,,,,137.9667880004272,137.98294739983976,0.0001414995640516281,137.98294739983976,137.98294739983976,138.18287270050496,138.46666320040822,138.46666320040822,138.46666320040822,138.48281900025904,138.78519780002534,0.5,normal,0.3176773004233837,[-0.6101851851851852],[0.4638888888888889],[1],[0],[0],[0.8176773004233837],138.785613800399,138.8001284999773,139.10011909995228,140.4023734005168,,,,,,,,,TestPilot,001,2024-11-13_11h07.18.248,Foreperiod_task,2024.2.1post4,60.094312214030396,2024-11-13 11h07.33.478345 -0800,
35,0,35,[-0.6101851851851852],[0.4638888888888889],[1],[0],[0],[0.7667990997433662],,,,0,0,0,0,35,0,35,0,140.41819990053773,,,,,,,,,,,,140.40267440024763,140.41819990053773,0.00031820032745599747,140.41819990053773,140.41819990053773,140.61851340066642,140.90183879993856,140.90183879993856,140.90183879993856,140.91852930001915,141.1702236002311,0.5,normal,0.26679909974336624,[-0.6101851851851852],[0.4638888888888889],[1],[0],[0],[0.7667990997433662],141.1705854004249,141.1850454006344,141.48578620050102,142.77076840028167,,,,,,,,,TestPilot,001,2024-11-13_11h07.18.248,Foreperiod_task,2024.2.1post4,60.094312214030396,2024-11-13 11h07.33.478345 -0800,
36,0,36,[-0.6101851851851852],[0.4638888888888889],[1],[0],[0],[0.7507577007636428],,,,0,0,0,0,36,0,36,0,142.78683280013502,,,,,,,,,,,,142.7710505006835,142.78683280013502,0.0002984004095196724,142.78683280013502,142.78683280013502,142.9868972999975,143.27064830064774,143.27064830064774,143.27064830064774,143.28720280062407,143.52279750071466,0.5,normal,0.2507577007636428,[-0.6101851851851852],[0.4638888888888889],[1],[0],[0],[0.7507577007636428],143.5233322000131,143.5366326002404,143.8376942006871,145.00592590030283,,,,,,,,,TestPilot,001,2024-11-13_11h07.18.248,Foreperiod_task,2024.2.1post4,60.094312214030396,2024-11-13 11h07.33.478345 -0800,
37,0,37,[-0.6101851851851852],[0.4638888888888889],[1],[0],[0],[2.33505430072546],,,,0,0,0,0,37,0,37,0,145.02190669998527,,,,,,,,,,,,145.00618850067258,145.02190669998527,0.00027849990874528885,145.02190669998527,145.02190669998527,145.22205040045083,147.00693089980632,147.00693089980632,147.00693089980632,147.0236597005278,147.34208410046995,2,normal,0.33505430072546005,[-0.6101851851851852],[0.4638888888888889],[1],[0],[0],[2.33505430072546],147.34252500068396,147.35724990069866,147.65748590044677,148.92587380018085,,,,,,,,,TestPilot,001,2024-11-13_11h07.18.248,Foreperiod_task,2024.2.1post4,60.094312214030396,2024-11-13 11h07.33.478345 -0800,
38,0,38,[-0.6101851851851852],[0.4638888888888889],[1],[0],[0],[2.3183360006660223],,,,0,0,0,0,38,0,38,0,148.94181890040636,,,,,,,,,,,,148.92616500053555,148.94181890040636,0.0003049997612833977,148.94181890040636,148.94181890040636,149.1421514004469,150.92692069988698,150.92692069988698,150.92692069988698,150.94371050037444,151.24568620044738,2,normal,0.3183360006660223,[-0.6101851851851852],[0.4638888888888889],[1],[0],[0],[2.3183360006660223],151.24609320051968,151.2604229003191,151.56079920008779,152.64561900030822,,,,,,,,,TestPilot,001,2024-11-13_11h07.18.248,Foreperiod_task,2024.2.1post4,60.094312214030396,2024-11-13 11h07.33.478345 -0800,
39,0,39,[-0.6101851851851852],[0.4638888888888889],[1],[0],[0],[2.3012890005484223],,,,0,0,0,0,39,0,39,0,152.66163310036063,,,,,,,,,,,,152.6460898006335,152.66163310036063,0.0004859995096921921,152.66163310036063,152.66163310036063,152.86180180031806,154.64696130063385,154.64696130063385,154.64696130063385,154.6634089006111,154.94830000028014,2,normal,0.30128900054842234,[-0.6101851851851852],[0.4638888888888889],[1],[0],[0],[2.3012890005484223],154.94874509982765,154.96335420012474,155.26392120029777,156.19870120007545,,,,,,,,,TestPilot,001,2024-11-13_11h07.18.248,Foreperiod_task,2024.2.1post4,60.094312214030396,2024-11-13 11h07.33.478345 -0800,
40,0,40,[-0.6101851851851852],[0.4638888888888889],[1],[0],[0],[2.284714700654149],,,,0,0,0,0,40,0,40,0,156.21460739988834,,,,,,,,,,,,156.19898490048945,156.21460739988834,0.0002977997064590454,156.21460739988834,156.21460739988834,156.41472639981657,158.19968890026212,158.19968890026212,158.19968890026212,158.2162385005504,158.48446330055594,2,normal,0.28471470065414906,[-0.6101851851851852],[0.4638888888888889],[1],[0],[0],[2.284714700654149],158.48486750014126,158.49955150019377,158.8002158999443,160.00176180060953,,,,,,,,,TestPilot,001,2024-11-13_11h07.18.248,Foreperiod_task,2024.2.1post4,60.094312214030396,2024-11-13 11h07.33.478345 -0800,
41,0,41,[-0.6101851851851852],[0.4638888888888889],[1],[0],[0],[0.9673504997044802],,,,0,0,0,0,41,0,41,0,160.01774120051414,,,,,,,,,,,,160.00205400027335,160.01774120051414,0.00031269993633031845,160.01774120051414,160.01774120051414,160.21790160052478,160.50150910019875,160.50150910019875,160.50150910019875,160.51814290042967,160.97026670072228,0.5,normal,0.46735049970448017,[-0.6101851851851852],[0.4638888888888889],[1],[0],[0],[0.9673504997044802],160.97068329993635,160.98525399994105,161.28539410047233,162.63724130019546,,,,,,,,,TestPilot,001,2024-11-13_11h07.18.248,Foreperiod_task,2024.2.1post4,60.094312214030396,2024-11-13 11h07.33.478345 -0800,
42,0,42,[-0.6101851851851852],[0.4638888888888889],[1],[0],[0],[2.2851456003263593],,,,0,0,0,0,42,0,42,0,162.65323940012604,,,,,,,,,,,,162.6375064998865,162.65323940012604,0.00027959980070590973,162.65323940012604,162.65323940012604,162.85346410050988,164.63831679988652,164.63831679988652,164.63831679988652,164.6549641005695,164.92345899995416,2,normal,0.28514560032635927,[-0.6101851851851852],[0.4638888888888889],[1],[0],[0],[2.2851456003263593],164.92384510021657,164.9386537000537,165.23875250015408,166.19053140003234,,,,,,,,,TestPilot,001,2024-11-13_11h07.18.248,Foreperiod_task,2024.2.1post4,60.094312214030396,2024-11-13 11h07.33.478345 -0800,
43,0,43,[-0.6101851851851852],[0.4638888888888889],[1],[0],[0],[0.8669835003092885],,,,0,0,0,0,43,0,43,0,166.20615770015866,,,,,,,,,,,,166.19089110009372,166.20615770015866,0.0003756992518901825,166.20615770015866,166.20615770015866,166.40643930062652,166.69020420033485,166.69020420033485,166.69020420033485,166.70669469982386,167.05874480027705,0.5,normal,0.3669835003092885,[-0.6101851851851852],[0.4638888888888889],[1],[0],[0],[0.8669835003092885],167.0591294001788,167.07360060047358,167.37384899985045,168.32505859993398,,,,,,,,,TestPilot,001,2024-11-13_11h07.18.248,Foreperiod_task,2024.2.1post4,60.094312214030396,2024-11-13 11h07.33.478345 -0800,
44,0,44,[-0.6101851851851852],[0.4638888888888889],[1],[0],[0],[0.8512439001351595],,,,0,0,0,0,44,0,44,0,168.34100070036948,,,,,,,,,,,,168.32523069996387,168.34100070036948,0.00018089916557073593,168.34100070036948,168.34100070036948,168.5416461005807,168.82515900023282,168.82515900023282,168.82515900023282,168.84175520017743,169.17733890004456,0.5,normal,0.3512439001351595,[-0.6101851851851852],[0.4638888888888889],[1],[0],[0],[0.8512439001351595],169.17780070006847,169.1921609006822,169.49261349998415,170.7608909001574,,,,,,,,,TestPilot,001,2024-11-13_11h07.18.248,Foreperiod_task,2024.2.1post4,60.094312214030396,2024-11-13 11h07.33.478345 -0800,
45,0,45,[-0.6101851851851852],[0.4638888888888889],[1],[0],[0],[0.399901800788939],,,,0,0,0,0,45,0,45,0,170.77704710047692,,,,,,,,,,,,170.7611704999581,170.77704710047692,0.0002886001020669937,170.77704710047692,170.77704710047692,170.97698550019413,,,,,171.16182589996606,2,normal,-1.600098199211061,[-0.6101851851851852],[0.4638888888888889],[1],[0],[0],[0.399901800788939],171.16229250002652,171.1761998999864,171.47730980068445,172.52879380062222,171.1761998999864,,,,,,,,TestPilot,001,2024-11-13_11h07.18.248,Foreperiod_task,2024.2.1post4,60.094312214030396,2024-11-13 11h07.33.478345 -0800,
46,0,46,[-0.6092592592592593],[0.46296296296296297],[1],[0],[0],[1.367646699771285],,,,0,0,0,0,46,0,46,0,172.5450618006289,,,,,,,,,,,,172.52906250022352,172.5450618006289,0.00028510019183158875,172.5450618006289,172.5450618006289,172.74493570066988,173.56244210060686,173.56244210060686,173.56244210060686,173.57904820051044,173.8975248998031,1.0277271262204148,surprise,0.3399195735508702,[-0.6092592592592593],[0.46296296296296297],[1],[0],[0],[1.367646699771285],173.89793760050088,173.9127123998478,174.21285700052977,175.3311211001128,,,,,,,,,TestPilot,001,2024-11-13_11h07.18.248,Foreperiod_task,2024.2.1post4,60.094312214030396,2024-11-13 11h07.33.478345 -0800,
47,0,47,[-0.6092592592592593],[0.46296296296296297],[1],[0],[0],[1.4671378005295992],,,,0,0,0,0,47,0,47,0,175.3472091006115,,,,,,,,,,,,175.33139040041715,175.3472091006115,0.000282900407910347,175.3472091006115,175.3472091006115,175.54821449983865,176.4313439000398,176.4313439000398,176.4313439000398,176.44839400053024,176.79889440070838,1.0914453850359682,surprise,0.37569241549363097,[-0.6092592592592593],[0.46296296296296297],[1],[0],[0],[1.4671378005295992],176.79905090015382,176.81507080048323,177.11532110068947,178.31709020026028,,,,,,,,,TestPilot,001,2024-11-13_11h07.18.248,Foreperiod_task,2024.2.1post4,60.094312214030396,2024-11-13 11h07.33.478345 -0800,
48,0,48,[-0.6092592592592593],[0.46296296296296297],[1],[0],[0],[2.3185581006109715],,,,0,0,0,0,48,0,48,0,178.33299450017512,,,,,,,,,,,,178.31737060006708,178.33299450017512,0.00029740016907453537,178.33299450017512,178.33299450017512,178.53277330007404,180.31804000027478,180.31804000027478,180.31804000027478,180.33465940039605,180.63675250019878,2,normal,0.31855810061097145,[-0.6092592592592593],[0.46296296296296297],[1],[0],[0],[2.3185581006109715],180.63727340009063,180.65168539993465,180.95180610008538,182.03663740027696,,,,,,,,,TestPilot,001,2024-11-13_11h07.18.248,Foreperiod_task,2024.2.1post4,60.094312214030396,2024-11-13 11h07.33.478345 -0800,
49,0,49,[-0.6092592592592593],[0.46296296296296297],[1],[0],[0],[0.8333894005045295],,,,0,0,0,0,49,0,49,0,182.05271080043167,,,,,,,,,,,,182.03689930029213,182.05271080043167,0.0002780994400382042,182.05271080043167,182.05271080043167,182.25292730052024,182.53649310022593,182.53649310022593,182.53649310022593,182.55314190033823,182.871128000319,0.5,normal,0.3333894005045295,[-0.6092592592592593],[0.46296296296296297],[1],[0],[0],[0.8333894005045295],182.8716198001057,182.88670099992305,183.18711329996586,184.30548090022057,,,,,,,,,TestPilot,001,2024-11-13_11h07.18.248,Foreperiod_task,2024.2.1post4,60.094312214030396,2024-11-13 11h07.33.478345 -0800,
50,0,50,[-0.6092592592592593],[0.46296296296296297],[1],[0],[0],[0.7500374997034669],,,,0,0,0,0,50,0,50,0,184.32162320055068,,,,,,,,,,,,184.30579550005496,184.32162320055068,0.00032159965485334396,184.32162320055068,184.32162320055068,184.5214822003618,184.80512390006334,184.80512390006334,184.80512390006334,184.82179370056838,185.05666809994727,0.5,normal,0.2500374997034669,[-0.6092592592592593],[0.46296296296296297],[1],[0],[0],[0.7500374997034669],185.05708920024335,185.07192690018564,185.3722240999341,186.29032579995692,,,,,,,,,TestPilot,001,2024-11-13_11h07.18.248,Foreperiod_task,2024.2.1post4,60.094312214030396,2024-11-13 11h07.33.478345 -0800,
51,0,51,[-0.6092592592592593],[0.46296296296296297],[1],[0],[0],[2.5018720999360085],,,,0,0,0,0,51,0,51,0,186.30634190049022,,,,,,,,,,,,186.29060950037092,186.30634190049022,0.00029959995299577713,186.30634190049022,186.30634190049022,186.50648589991033,188.2913394002244,188.2913394002244,188.2913394002244,188.30810180027038,188.79330820031464,2,normal,0.5018720999360085,[-0.6092592592592593],[0.46296296296296297],[1],[0],[0],[2.5018720999360085],188.79376700054854,188.80847510043532,189.10867490060627,190.1768016004935,,,,,,,,,TestPilot,001,2024-11-13_11h07.18.248,Foreperiod_task,2024.2.1post4,60.094312214030396,2024-11-13 11h07.33.478345 -0800,
52,0,52,[-0.6092592592592593],[0.46296296296296297],[1],[0],[0],[1.0008266000077128],,,,0,0,0,0,52,0,52,0,190.19294610060751,,,,,,,,,,,,190.1770465001464,190.19294610060751,0.0002588992938399315,190.19294610060751,190.19294610060751,190.39297869987786,190.6766942003742,190.6766942003742,190.6766942003742,190.69270069990307,191.17859380040318,0.5,normal,0.5008266000077128,[-0.6092592592592593],[0.46296296296296297],[1],[0],[0],[1.0008266000077128],191.17902330029756,191.1937199998647,191.49409139994532,192.4788215002045,,,,,,,,,TestPilot,001,2024-11-13_11h07.18.248,Foreperiod_task,2024.2.1post4,60.094312214030396,2024-11-13 11h07.33.478345 -0800,
53,0,53,[-0.6092592592592593],[0.46296296296296297],[1],[0],[0],[2.301829000003636],,,,0,0,0,0,53,0,53,0,192.49479220062494,,,,,,,,,,,,192.4790785005316,192.49479220062494,0.0002716993913054466,192.49479220062494,192.49479220062494,192.69395839981735,194.47972009982914,194.47972009982914,194.47972009982914,194.4964723000303,194.78179500065744,2,normal,0.3018290000036359,[-0.6092592592592593],[0.46296296296296297],[1],[0],[0],[2.301829000003636],194.78241570014507,194.79685860034078,195.09697020053864,196.04866140056401,,,,,,,,,TestPilot,001,2024-11-13_11h07.18.248,Foreperiod_task,2024.2.1post4,60.094312214030396,2024-11-13 11h07.33.478345 -0800,
54,0,54,[-0.6092592592592593],[0.46296296296296297],[1],[0],[0],[2.434027500450611],,,,0,0,0,0,54,0,54,0,196.06453390046954,,,,,,,,,,,,196.04893480055034,196.06453390046954,0.00027980003505945206,196.06453390046954,196.06453390046954,196.26499340031296,198.0495196999982,198.0495196999982,198.0495196999982,198.0662767002359,198.48346260003746,2,normal,0.4340275004506111,[-0.6092592592592593],[0.46296296296296297],[1],[0],[0],[2.434027500450611],198.48370250035077,198.49941750057042,198.79974470008165,199.86824900005013,,,,,,,,,TestPilot,001,2024-11-13_11h07.18.248,Foreperiod_task,2024.2.1post4,60.094312214030396,2024-11-13 11h07.33.478345 -0800,
55,0,55,[-0.6092592592592593],[0.46296296296296297],[1],[0],[0],[1.3844609996303916],,,,0,0,0,0,55,0,55,0,199.88428760040551,,,,,,,,,,,,199.8685167003423,199.88428760040551,0.00028320029377937317,199.88428760040551,199.88428760040551,200.0845476007089,200.95204190071672,200.95204190071672,200.95204190071672,200.96859590057284,201.2537608006969,1.0760089996150737,surprise,0.3084520000153179,[-0.6092592592592593],[0.46296296296296297],[1],[0],[0],[1.3844609996303916],201.25421850010753,201.2688287999481,201.56899540033191,202.62052530050278,,,,,,,,,TestPilot,001,2024-11-13_11h07.18.248,Foreperiod_task,2024.2.1post4,60.094312214030396,2024-11-13 11h07.33.478345 -0800,
56,0,56,[-0.6092592592592593],[0.46296296296296297],[1],[0],[0],[2.285047799348831],,,,0,0,0,0,56,0,56,0,202.6366105005145,,,,,,,,,,,,202.62080449983478,202.6366105005145,0.0002894001081585884,202.6366105005145,202.6366105005145,202.83667390048504,204.62153840065002,204.62153840065002,204.62153840065002,204.63852370064706,204.90669060032815,2,normal,0.2850477993488312,[-0.6092592592592593],[0.46296296296296297],[1],[0],[0],[2.285047799348831],204.90725130029023,204.92179570067674,205.22210909985006,206.44032219983637,,,,,,,,,TestPilot,001,2024-11-13_11h07.18.248,Foreperiod_task,2024.2.1post4,60.094312214030396,2024-11-13 11h07.33.478345 -0800,
57,0,57,[-0.6092592592592593],[0.46296296296296297],[1],[0],[0],[0.8006321005523205],,,,0,0,0,0,57,0,57,0,206.45676819980145,,,,,,,,,,,,206.4405249003321,206.45676819980145,0.00022620055824518204,206.45676819980145,206.45676819980145,206.65656230039895,206.94013150036335,206.94013150036335,206.94013150036335,206.95706210006028,207.24180660024285,0.5,normal,0.3006321005523205,[-0.6092592592592593],[0.46296296296296297],[1],[0],[0],[0.8006321005523205],207.2421866999939,207.25709610059857,207.55767589993775,208.47573010064662,,,,,,,,,TestPilot,001,2024-11-13_11h07.18.248,Foreperiod_task,2024.2.1post4,60.094312214030396,2024-11-13 11h07.33.478345 -0800,
58,0,58,[-0.6092592592592593],[0.46296296296296297],[1],[0],[0],[2.30101350042969],,,,0,0,0,0,58,0,58,0,208.49158969987184,,,,,,,,,,,,208.47614060062915,208.49158969987184,0.0004195999354124069,208.49158969987184,208.49158969987184,208.69091380015016,210.4764601001516,210.4764601001516,210.4764601001516,210.49365010019392,210.77791860047728,2,normal,0.3010135004296899,[-0.6092592592592593],[0.46296296296296297],[1],[0],[0],[2.30101350042969],210.77825149986893,210.79335120040923,211.09361079987139,212.0285555999726,,,,,,,,,TestPilot,001,2024-11-13_11h07.18.248,Foreperiod_task,2024.2.1post4,60.094312214030396,2024-11-13 11h07.33.478345 -0800,
59,0,59,[-0.6092592592592593],[0.46296296296296297],[1],[0],[0],[0.9166262000799179],,,,0,0,0,0,59,0,59,0,212.04444599989802,,,,,,,,,,,,212.02882810030133,212.04444599989802,0.00028769951313734055,212.04444599989802,212.04444599989802,212.2446082001552,212.5280678998679,212.5280678998679,212.5280678998679,212.54485550057143,212.94627800025046,0.5,normal,0.4166262000799179,[-0.6092592592592593],[0.46296296296296297],[1],[0],[0],[0.9166262000799179],212.94671209994704,212.9619195004925,213.26207610033453,214.53045069985092,,,,,,,,,TestPilot,001,2024-11-13_11h07.18.248,Foreperiod_task,2024.2.1post4,60.094312214030396,2024-11-13 11h07.33.478345 -0800,
60,0,60,[-0.6092592592592593],[0.46296296296296297],[1],[0],[0],[0.8839621003717184],,,,0,0,0,0,60,0,60,0,214.54618080053478,,,,,,,,,,,,214.53071540035307,214.54618080053478,0.0002804994583129883,214.54618080053478,214.54618080053478,214.74619430024177,215.0301756998524,215.0301756998524,215.0301756998524,215.04698390047997,215.41547940019518,0.5,normal,0.3839621003717184,[-0.6092592592592593],[0.46296296296296297],[1],[0],[0],[0.8839621003717184],215.41588759981096,215.43052040040493,215.73007120005786,216.64868220034987,,,,,,,,,TestPilot,001,2024-11-13_11h07.18.248,Foreperiod_task,2024.2.1post4,60.094312214030396,2024-11-13 11h07.33.478345 -0800,
61,0,61,[-0.6092592592592593],[0.46296296296296297],[1],[0],[0],[0.9005006002262235],,,,0,0,0,0,61,0,61,0,216.6649938998744,,,,,,,,,,,,216.6489252001047,216.6649938998744,0.0002589002251625061,216.6649938998744,216.6649938998744,216.86535910051316,217.1485662003979,217.1485662003979,217.1485662003979,217.16539609991014,217.5500399004668,0.5,normal,0.40050060022622347,[-0.6092592592592593],[0.46296296296296297],[1],[0],[0],[0.9005006002262235],217.550377599895,217.56553889997303,217.86597550008446,218.74984150007367,,,,,,,,,TestPilot,001,2024-11-13_11h07.18.248,Foreperiod_task,2024.2.1post4,60.094312214030396,2024-11-13 11h07.33.478345 -0800,
62,0,62,[-0.6092592592592593],[0.46296296296296297],[1],[0],[0],[0.9013008996844292],,,,0,0,0,0,62,0,62,0,218.76689970027655,,,,,,,,,,,,218.75000909995288,218.76689970027655,0.0001758001744747162,218.76689970027655,218.76689970027655,218.96691650059074,219.25004199985415,219.25004199985415,219.25004199985415,219.26697240024805,219.65196590032429,0.5,normal,0.40130089968442917,[-0.6092592592592593],[0.46296296296296297],[1],[0],[0],[0.9013008996844292],219.65235100034624,219.6678776005283,219.9675641003996,221.21936240047216,,,,,,,,,TestPilot,001,2024-11-13_11h07.18.248,Foreperiod_task,2024.2.1post4,60.094312214030396,2024-11-13 11h07.33.478345 -0800,
63,0,63,[-0.6092592592592593],[0.46296296296296297],[1],[0],[0],[0.9841256001964211],,,,0,0,0,0,63,0,63,0,221.2352758999914,,,,,,,,,,,,221.21963860001415,221.2352758999914,0.00029120035469532013,221.2352758999914,221.2352758999914,221.43552540056407,221.71919510047883,221.71919510047883,221.71919510047883,221.73519370052963,222.2044839002192,0.5,normal,0.48412560019642115,[-0.6092592592592593],[0.46296296296296297],[1],[0],[0],[0.9841256001964211],222.20485400035977,222.21959250047803,222.51988830044866,223.48789190035313,,,,,,,,,TestPilot,001,2024-11-13_11h07.18.248,Foreperiod_task,2024.2.1post4,60.094312214030396,2024-11-13 11h07.33.478345 -0800,
64,0,64,[-0.6092592592592593],[0.46296296296296297],[1],[0],[0],[1.501346000470221],,,,0,0,0,0,64,0,64,0,223.5039167003706,,,,,,,,,,,,223.48816770035774,223.5039167003706,0.00028190016746520996,223.5039167003706,223.5039167003706,223.70399940013885,224.67150020040572,224.67150020040572,224.67150020040572,224.6883103,224.99027890060097,1.1831430136422743,surprise,0.3182029868279468,[-0.6092592592592593],[0.46296296296296297],[1],[0],[0],[1.501346000470221],224.99070589989424,225.005102599971,225.30540150031447,226.67388940043747,,,,,,,,,TestPilot,001,2024-11-13_11h07.18.248,Foreperiod_task,2024.2.1post4,60.094312214030396,2024-11-13 11h07.33.478345 -0800,
65,0,65,[-0.6092592592592593],[0.46296296296296297],[1],[0],[0],[2.3517850004136562],,,,0,0,0,0,65,0,65,0,226.6900444002822,,,,,,,,,,,,226.6741941003129,226.6900444002822,0.0003212001174688339,226.6900444002822,226.6900444002822,226.89004390034825,228.67492820043117,228.67492820043117,228.67492820043117,228.69160659983754,229.02683380059898,2,normal,0.35178500041365623,[-0.6092592592592593],[0.46296296296296297],[1],[0],[0],[2.3517850004136562],229.02733640000224,229.04178940039128,229.3422862002626,230.6773227006197,,,,,,,,,TestPilot,001,2024-11-13_11h07.18.248,Foreperiod_task,2024.2.1post4,60.094312214030396,2024-11-13 11h07.33.478345 -0800,
66,0,66,[-0.6092592592592593],[0.46296296296296297],[1],[0],[0],[2.368415099568665],,,,0,0,0,0,66,0,66,0,230.6931675998494,,,,,,,,,,,,230.6776140006259,230.6931675998494,0.00031240005046129227,230.6931675998494,230.6931675998494,230.89352980069816,232.67828810028732,232.67828810028732,232.67828810028732,232.69493489991874,233.04690930061042,2,normal,0.368415099568665,[-0.6092592592592593],[0.46296296296296297],[1],[0],[0],[2.368415099568665],233.0473413998261,233.06182610057294,233.362163499929,234.4971046000719,,,,,,,,,TestPilot,001,2024-11-13_11h07.18.248,Foreperiod_task,2024.2.1post4,60.094312214030396,2024-11-13 11h07.33.478345 -0800,
67,0,67,[-0.6092592592592593],[0.46296296296296297],[1],[0],[0],[2.2842183001339436],,,,0,0,0,0,67,0,67,0,234.5130977006629,,,,,,,,,,,,234.49741980060935,234.5130977006629,0.0003350004553794861,234.5130977006629,234.5130977006629,234.71319910045713,236.49804250057787,236.49804250057787,236.49804250057787,236.5147211998701,236.7822027998045,2,normal,0.28421830013394356,[-0.6092592592592593],[0.46296296296296297],[1],[0],[0],[2.2842183001339436],236.78248830046505,236.79838069994003,237.09846379980445,238.16692129988223,,,,,,,,,TestPilot,001,2024-11-13_11h07.18.248,Foreperiod_task,2024.2.1post4,60.094312214030396,2024-11-13 11h07.33.478345 -0800,
68,0,68,[-0.6092592592592593],[0.46296296296296297],[1],[0],[0],[2.3348943991586566],,,,0,0,0,0,68,0,68,0,238.18278300017118,,,,,,,,,,,,238.1672208001837,238.18278300017118,0.00031749997287988663,238.18278300017118,238.18278300017118,238.3829073002562,240.16753040067852,240.16753040067852,240.16753040067852,240.18437710031867,240.50288880057633,2,normal,0.3348943991586566,[-0.6092592592592593],[0.46296296296296297],[1],[0],[0],[2.3348943991586566],240.50336240045726,240.51797580067068,240.81834950018674,241.90321240015328,,,,,,,,,TestPilot,001,2024-11-13_11h07.18.248,Foreperiod_task,2024.2.1post4,60.094312214030396,2024-11-13 11h07.33.478345 -0800,
69,0,69,[-0.6092592592592593],[0.46296296296296297],[1],[0],[0],[0.9675739007070661],,,,0,0,0,0,69,0,69,0,241.9193059001118,,,,,,,,,,,,241.90348399989307,241.9193059001118,0.0002886001020669937,241.9193059001118,241.9193059001118,242.11938320007175,242.40295310039073,242.40295310039073,242.40295310039073,242.41977000050247,242.87205810006708,0.5,normal,0.46757390070706606,[-0.6092592592592593],[0.46296296296296297],[1],[0],[0],[0.9675739007070661],242.87246500048786,242.88693800009787,243.18690170068294,244.30518980044872,,,,,,,,,TestPilot,001,2024-11-13_11h07.18.248,Foreperiod_task,2024.2.1post4,60.094312214030396,2024-11-13 11h07.33.478345 -0800,
70,0,70,[-0.6092592592592593],[0.46296296296296297],[1],[0],[0],[1.0339464005082846],,,,0,0,0,0,70,0,70,0,244.3212384004146,,,,,,,,,,,,244.3054593000561,244.3212384004146,0.0002862000837922096,244.3212384004146,244.3212384004146,244.52134370058775,244.822057900019,244.822057900019,244.822057900019,244.83833369985223,245.34024600032717,0.5,normal,0.5339464005082846,[-0.6092592592592593],[0.46296296296296297],[1],[0],[0],[1.0339464005082846],245.34071680065244,245.35546889994293,245.6557618007064,246.9243312003091,,,,,,,,,TestPilot,001,2024-11-13_11h07.18.248,Foreperiod_task,2024.2.1post4,60.094312214030396,2024-11-13 11h07.33.478345 -0800,
71,0,71,[-0.6092592592592593],[0.46296296296296297],[1],[0],[0],[0.8501391001045704],,,,0,0,0,0,71,0,71,0,246.9401676999405,,,,,,,,,,,,246.92461840063334,246.9401676999405,0.0002981005236506462,246.9401676999405,246.9401676999405,247.1402363004163,247.42384130042046,247.42384130042046,247.42384130042046,247.4405003003776,247.77589150052518,0.5,normal,0.3501391001045704,[-0.6092592592592593],[0.46296296296296297],[1],[0],[0],[0.8501391001045704],247.77648389991373,247.79090740066022,248.09099180065095,248.99288330040872,,,,,,,,,TestPilot,001,2024-11-13_11h07.18.248,Foreperiod_task,2024.2.1post4,60.094312214030396,2024-11-13 11h07.33.478345 -0800,
72,0,72,[-0.6092592592592593],[0.46296296296296297],[1],[0],[0],[2.2844382002949715],,,,0,0,0,0,72,0,72,0,249.0086545003578,,,,,,,,,,,,248.99320480041206,249.0086545003578,0.0003311997279524803,249.0086545003578,249.0086545003578,249.2087612003088,250.99360049981624,250.99360049981624,250.99360049981624,251.01015690062195,251.27840610034764,2,normal,0.28443820029497147,[-0.6092592592592593],[0.46296296296296297],[1],[0],[0],[2.2844382002949715],251.27880520001054,251.2937928000465,251.59421910066158,252.69545430038124,,,,,,,,,TestPilot,001,2024-11-13_11h07.18.248,Foreperiod_task,2024.2.1post4,60.094312214030396,2024-11-13 11h07.33.478345 -0800,
73,0,73,[-0.6092592592592593],[0.46296296296296297],[1],[0],[0],[0.9005003999918699],,,,0,0,0,0,73,0,73,0,252.71148340031505,,,,,,,,,,,,252.69589910004288,252.71148340031505,0.00046289991587400436,252.71148340031505,252.71148340031505,252.91210990026593,253.19531199987978,253.19531199987978,253.19531199987978,253.2120878007263,253.59715380053967,0.5,normal,0.4005003999918699,[-0.6092592592592593],[0.46296296296296297],[1],[0],[0],[0.9005003999918699],253.59754789993167,253.6123331002891,253.91248810011894,255.23086120001972,,,,,,,,,TestPilot,001,2024-11-13_11h07.18.248,Foreperiod_task,2024.2.1post4,60.094312214030396,2024-11-13 11h07.33.478345 -0800,
74,0,74,[-0.6092592592592593],[0.46296296296296297],[1],[0],[0],[2.3019107999280095],,,,0,0,0,0,74,0,74,0,255.24662500061095,,,,,,,,,,,,255.23104010056704,255.24662500061095,0.00018929969519376755,255.24662500061095,255.24662500061095,255.4471244001761,257.23198040015996,257.23198040015996,257.23198040015996,257.2486214004457,257.5337359998375,2,normal,0.3019107999280095,[-0.6092592592592593],[0.46296296296296297],[1],[0],[0],[2.3019107999280095],257.5340827004984,257.5489381002262,257.8489561006427,259.0675228005275,,,,,,,,,TestPilot,001,2024-11-13_11h07.18.248,Foreperiod_task,2024.2.1post4,60.094312214030396,2024-11-13 11h07.33.478345 -0800,
75,0,75,[-0.6092592592592593],[0.46296296296296297],[1],[0],[0],[2.3348938999697566],,,,0,0,0,0,75,0,75,0,259.08353279996663,,,,,,,,,,,,259.06780000030994,259.08353279996663,0.00029769912362098694,259.08353279996663,259.08353279996663,259.28358640056103,261.068581700325,261.068581700325,261.068581700325,261.0851305006072,261.403479100205,2,normal,0.3348938999697566,[-0.6092592592592593],[0.46296296296296297],[1],[0],[0],[2.3348938999697566],261.40385540015996,261.4187494004145,261.718975700438,262.88748440053314,,,,,,,,,TestPilot,001,2024-11-13_11h07.18.248,Foreperiod_task,2024.2.1post4,60.094312214030396,2024-11-13 11h07.33.478345 -0800,
76,0,76,[-0.6092592592592593],[0.46296296296296297],[1],[0],[0],[2.285014499910176],,,,0,0,0,0,76,0,76,0,262.90336350072175,,,,,,,,,,,,262.88775190059096,262.90336350072175,0.00028369948267936707,262.90336350072175,262.90336350072175,263.10347190033644,264.88856470026076,264.88856470026076,264.88856470026076,264.9051703000441,265.17356790043414,2,normal,0.2850144999101758,[-0.6092592592592593],[0.46296296296296297],[1],[0],[0],[2.285014499910176],265.1740258000791,265.18867910001427,265.48870510049164,266.5071005001664,,,,,,,,,TestPilot,001,2024-11-13_11h07.18.248,Foreperiod_task,2024.2.1post4,60.094312214030396,2024-11-13 11h07.33.478345 -0800,
77,0,77,[-0.6092592592592593],[0.46296296296296297],[1],[0],[0],[1.7678180001676083],,,,0,0,0,0,77,0,77,0,266.52300550043583,,,,,,,,,,,,266.50736470054835,266.52300550043583,0.00028110016137361526,266.52300550043583,266.52300550043583,266.723218199797,267.97417160030454,267.97417160030454,267.97417160030454,267.990859400481,268.2759313005954,1.4520255761413636,surprise,0.31579242402624463,[-0.6092592592592593],[0.46296296296296297],[1],[0],[0],[1.7678180001676083],268.27649100031704,268.29142449982464,268.59099149983376,269.57617870066315,,,,,,,,,TestPilot,001,2024-11-13_11h07.18.248,Foreperiod_task,2024.2.1post4,60.094312214030396,2024-11-13 11h07.33.478345 -0800,
78,0,78,[-0.6092592592592593],[0.46296296296296297],[1],[0],[0],[0.8838472003117204],,,,0,0,0,0,78,0,78,0,269.5922627002001,,,,,,,,,,,,269.57645240053535,269.5922627002001,0.0002899998798966408,269.5922627002001,269.5922627002001,269.7921079006046,270.07595520000905,270.07595520000905,270.07595520000905,270.09267880022526,270.46102420054376,0.5,normal,0.38384720031172037,[-0.6092592592592593],[0.46296296296296297],[1],[0],[0],[0.8838472003117204],270.4614081000909,270.4765273006633,270.7759581003338,271.7946297004819,,,,,,,,,TestPilot,001,2024-11-13_11h07.18.248,Foreperiod_task,2024.2.1post4,60.094312214030396,2024-11-13 11h07.33.478345 -0800,
79,0,79,[-0.6092592592592593],[0.46296296296296297],[1],[0],[0],[1.5344556998461485],,,,0,0,0,0,79,0,79,0,271.8107323003933,,,,,,,,,,,,271.79491289984435,271.8107323003933,0.00029579922556877136,271.8107323003933,271.8107323003933,272.01078870054334,273.0283837998286,273.0283837998286,273.0283837998286,273.04510929994285,273.33013440016657,1.2277360782184648,surprise,0.30671962162768374,[-0.6092592592592593],[0.46296296296296297],[1],[0],[0],[1.5344556998461485],273.3306430000812,273.34555990062654,273.6455324003473,274.9639899004251,,,,,,,,,TestPilot,001,2024-11-13_11h07.18.248,Foreperiod_task,2024.2.1post4,60.094312214030396,2024-11-13 11h07.33.478345 -0800,
80,0,80,[-0.6092592592592593],[0.46296296296296297],[1],[0],[0],[2.268512500450015],,,,0,0,0,0,80,0,80,0,274.980092599988,,,,,,,,,,,,274.96426020003855,274.980092599988,0.00028610043227672577,274.980092599988,274.980092599988,275.1802053004503,276.9653694005683,276.9653694005683,276.9653694005683,276.98171710036695,277.233538900502,2,normal,0.26851250045001507,[-0.6092592592592593],[0.46296296296296297],[1],[0],[0],[2.268512500450015],277.23397119995207,277.2485102005303,277.5488552004099,278.60000440012664,,,,,,,,,TestPilot,001,2024-11-13_11h07.18.248,Foreperiod_task,2024.2.1post4,60.094312214030396,2024-11-13 11h07.33.478345 -0800,
81,0,81,[-0.6092592592592593],[0.46296296296296297],[1],[0],[0],[1.351494500413537],,,,0,0,0,0,81,0,81,0,278.61635820008814,,,,,,,,,,,,278.60030160006136,278.61635820008814,0.000313599593937397,278.61635820008814,278.61635820008814,278.81656809989363,279.61727380007505,279.61727380007505,279.61727380007505,279.6339373998344,279.9526134002954,1.0019627938322202,surprise,0.3495317065813168,[-0.6092592592592593],[0.46296296296296297],[1],[0],[0],[1.351494500413537],279.95301530044526,279.96780110057443,280.26782860048115,281.63623510021716,,,,,,,,,TestPilot,001,2024-11-13_11h07.18.248,Foreperiod_task,2024.2.1post4,60.094312214030396,2024-11-13 11h07.33.478345 -0800,
82,0,82,[-0.6092592592592593],[0.46296296296296297],[1],[0],[0],[0.8335536001250148],,,,0,0,0,0,82,0,82,0,281.6524799000472,,,,,,,,,,,,281.63653180003166,281.6524799000472,0.0003175996243953705,281.6524799000472,281.6524799000472,281.8516605999321,282.1360956998542,282.1360956998542,282.1360956998542,282.1527220001444,282.4707875000313,0.5,normal,0.3335536001250148,[-0.6092592592592593],[0.46296296296296297],[1],[0],[0],[0.8335536001250148],282.47113330010325,282.4866486005485,282.78657970018685,283.8380252998322,,,,,,,,,TestPilot,001,2024-11-13_11h07.18.248,Foreperiod_task,2024.2.1post4,60.094312214030396,2024-11-13 11h07.33.478345 -0800,
83,0,83,[-0.6092592592592593],[0.46296296296296297],[1],[0],[0],[0.9169577993452549],,,,0,0,0,0,83,0,83,0,283.8541637007147,,,,,,,,,,,,283.83830120041966,283.8541637007147,0.0002939002588391304,283.8541637007147,283.8541637007147,284.05426220037043,284.33778380043805,284.33778380043805,284.33778380043805,284.35452460031956,284.75599170010537,0.5,normal,0.4169577993452549,[-0.6092592592592593],[0.46296296296296297],[1],[0],[0],[0.9169577993452549],284.75633420050144,284.77159539982677,285.07173269987106,286.2402924001217,,,,,,,,,TestPilot,001,2024-11-13_11h07.18.248,Foreperiod_task,2024.2.1post4,60.094312214030396,2024-11-13 11h07.33.478345 -0800,
84,0,84,[-0.6092592592592593],[0.46296296296296297],[1],[0],[0],[2.301253200508654],,,,0,0,0,0,84,0,84,0,286.2560339998454,,,,,,,,,,,,286.2405377002433,286.2560339998454,0.0002544000744819641,286.2560339998454,286.2560339998454,286.4561224998906,288.24128390010446,288.24128390010446,288.24128390010446,288.257918599993,288.54254529997706,2,normal,0.3012532005086541,[-0.6092592592592593],[0.46296296296296297],[1],[0],[0],[2.301253200508654],288.54300060030073,288.5580588001758,288.8579641999677,290.19341479986906,,,,,,,,,TestPilot,001,2024-11-13_11h07.18.248,Foreperiod_task,2024.2.1post4,60.094312214030396,2024-11-13 11h07.33.478345 -0800,
85,0,85,[-0.6092592592592593],[0.46296296296296297],[1],[0],[0],[0.9342952994629741],,,,0,0,0,0,85,0,85,0,290.2094745999202,,,,,,,,,,,,290.1936854002997,290.2094745999202,0.0002976004034280777,290.2094745999202,290.2094745999202,290.40977820008993,290.693282100372,290.693282100372,290.693282100372,290.70988130010664,291.1288568004966,0.5,normal,0.43429529946297407,[-0.6092592592592593],[0.46296296296296297],[1],[0],[0],[0.9342952994629741],291.1293641002849,291.1434941003099,291.4437710000202,292.57881760038435,,,,,,,,,TestPilot,001,2024-11-13_11h07.18.248,Foreperiod_task,2024.2.1post4,60.094312214030396,2024-11-13 11h07.33.478345 -0800,
86,0,86,[-0.6092592592592593],[0.46296296296296297],[1],[0],[0],[2.3173208003863692],,,,0,0,0,0,86,0,86,0,292.59484960045666,,,,,,,,,,,,292.5790664004162,292.59484960045666,0.00025460030883550644,292.59484960045666,292.59484960045666,292.79494580067694,294.5797973005101,294.5797973005101,294.5797973005101,294.59643500018865,294.8968604002148,2,normal,0.31732080038636923,[-0.6092592592592593],[0.46296296296296297],[1],[0],[0],[2.3173208003863692],294.8970893006772,294.91277860011905,295.21356100030243,296.2985422005877,,,,,,,,,TestPilot,001,2024-11-13_11h07.18.248,Foreperiod_task,2024.2.1post4,60.094312214030396,2024-11-13 11h07.33.478345 -0800,
87,0,87,[-0.6092592592592593],[0.46296296296296297],[1],[0],[0],[0.9001412000507116],,,,0,0,0,0,87,0,87,0,296.3144175000489,,,,,,,,,,,,296.2988135004416,296.3144175000489,0.0002879006788134575,296.3144175000489,296.3144175000489,296.51465110015124,296.7978982999921,296.7978982999921,296.7978982999921,296.8150623003021,297.19959380012006,0.5,normal,0.40014120005071163,[-0.6092592592592593],[0.46296296296296297],[1],[0],[0],[0.9001412000507116],297.1999960998073,297.2151533998549,297.5156647004187,298.73386120051146,,,,,,,,,TestPilot,001,2024-11-13_11h07.18.248,Foreperiod_task,2024.2.1post4,60.094312214030396,2024-11-13 11h07.33.478345 -0800,
88,0,88,[-0.6092592592592593],[0.46296296296296297],[1],[0],[0],[0.9175801994279027],,,,0,0,0,0,88,0,88,0,298.7503393003717,,,,,,,,,,,,298.73413570038974,298.7503393003717,0.0002827998250722885,298.7503393003717,298.7503393003717,298.95006390009075,299.2335827006027,299.2335827006027,299.2335827006027,299.2503686007112,299.6524473000318,0.5,normal,0.4175801994279027,[-0.6092592592592593],[0.46296296296296297],[1],[0],[0],[0.9175801994279027],299.6528847999871,299.66729950066656,299.9674583002925,301.3360473001376,,,,,,,,,TestPilot,001,2024-11-13_11h07.18.248,Foreperiod_task,2024.2.1post4,60.094312214030396,2024-11-13 11h07.33.478345 -0800,
89,0,89,[-0.6092592592592593],[0.46296296296296297],[1],[0],[0],[1.4677447993308306],,,,0,0,0,0,89,0,89,0,301.35207800008357,,,,,,,,,,,,301.33629829995334,301.35207800008357,0.00025690067559480667,301.35207800008357,301.35207800008357,301.55214910022914,302.5362804001197,302.5362804001197,302.5362804001197,302.5529388003051,302.8048275001347,1.198536562735544,surprise,0.2692082365952866,[-0.6092592592592593],[0.46296296296296297],[1],[0],[0],[1.4677447993308306],302.80540810059756,302.8200194006786,303.1204904001206,304.25513119995594,,,,,,,,,TestPilot,001,2024-11-13_11h07.18.248,Foreperiod_task,2024.2.1post4,60.094312214030396,2024-11-13 11h07.33.478345 -0800,
90,0,90,[-0.6092592592592593],[0.46296296296296297],[1],[0],[0],[0.9006720995530486],,,,0,0,0,0,90,0,90,0,304.271044800058,,,,,,,,,,,,304.2553868005052,304.271044800058,0.00026899948716163635,304.271044800058,304.271044800058,304.4711929000914,304.7548640007153,304.7548640007153,304.7548640007153,304.7716271998361,305.1570075005293,0.5,normal,0.4006720995530486,[-0.6092592592592593],[0.46296296296296297],[1],[0],[0],[0.9006720995530486],305.1575755001977,305.1718976004049,305.4722781004384,306.6071585007012,,,,,,,,,TestPilot,001,2024-11-13_11h07.18.248,Foreperiod_task,2024.2.1post4,60.094312214030396,2024-11-13 11h07.33.478345 -0800,
91,0,91,[-0.6092592592592593],[0.46296296296296297],[1],[0],[0],[0.765726899728179],,,,0,0,0,0,91,0,91,0,306.622825300321,,,,,,,,,,,,306.60744340065867,306.622825300321,0.00030799955129623413,306.622825300321,306.622825300321,306.8233989002183,307.10675050038844,307.10675050038844,307.10675050038844,307.1236954005435,307.37374870013446,0.5,normal,0.265726899728179,[-0.6092592592592593],[0.46296296296296297],[1],[0],[0],[0.765726899728179],307.37403410021216,307.3898296998814,307.69077630061656,308.8087672004476,,,,,,,,,TestPilot,001,2024-11-13_11h07.18.248,Foreperiod_task,2024.2.1post4,60.094312214030396,2024-11-13 11h07.33.478345 -0800,
92,0,92,[-0.6092592592592593],[0.46296296296296297],[1],[0],[0],[1.7513174004852772],,,,0,0,0,0,92,0,92,0,308.82491540070623,,,,,,,,,,,,308.80899380054325,308.82491540070623,0.00024139974266290665,308.82491540070623,308.82491540070623,309.0248619001359,310.2928872006014,310.2928872006014,310.2928872006014,310.309554300271,310.5609798002988,1.475207605779072,surprise,0.2761097947062052,[-0.6092592592592593],[0.46296296296296297],[1],[0],[0],[1.7513174004852772],310.561410699971,310.5763397999108,310.87665200047195,312.1284616002813,,,,,,,,,TestPilot,001,2024-11-13_11h07.18.248,Foreperiod_task,2024.2.1post4,60.094312214030396,2024-11-13 11h07.33.478345 -0800,
93,0,93,[-0.6092592592592593],[0.46296296296296297],[1],[0],[0],[0.7834513001143932],,,,0,0,0,0,93,0,93,0,312.1444986006245,,,,,,,,,,,,312.1287780003622,312.1444986006245,0.0003270003944635391,312.1444986006245,312.1444986006245,312.34456790052354,312.6281717000529,312.6281717000529,312.6281717000529,312.6449030004442,312.9129560999572,0.5,normal,0.28345130011439323,[-0.6092592592592593],[0.46296296296296297],[1],[0],[0],[0.7834513001143932],312.9134847000241,312.92851010058075,313.2288327999413,314.21352310013026,,,,,,,,,TestPilot,001,2024-11-13_11h07.18.248,Foreperiod_task,2024.2.1post4,60.094312214030396,2024-11-13 11h07.33.478345 -0800,
94,0,94,[-0.6092592592592593],[0.46296296296296297],[1],[0],[0],[2.334813599474728],,,,0,0,0,0,94,0,94,0,314.22938620019704,,,,,,,,,,,,314.21380589995533,314.22938620019704,0.0002987002953886986,314.22938620019704,314.22938620019704,314.4297481998801,316.2146076001227,316.2146076001227,316.2146076001227,316.2309066001326,316.5494216000661,2,normal,0.3348135994747281,[-0.6092592592592593],[0.46296296296296297],[1],[0],[0],[2.334813599474728],316.5498523004353,316.56515619996935,316.8650393001735,318.21697260066867,,,,,,,,,TestPilot,001,2024-11-13_11h07.18.248,Foreperiod_task,2024.2.1post4,60.094312214030396,2024-11-13 11h07.33.478345 -0800,
95,0,95,[-0.6092592592592593],[0.46296296296296297],[1],[0],[0],[2.251294800080359],,,,0,0,0,0,95,0,95,0,318.23288589995354,,,,,,,,,,,,318.2172480998561,318.23288589995354,0.0002935994416475296,318.23288589995354,318.23288589995354,318.4327683998272,320.21769720036536,320.21769720036536,320.21769720036536,320.2340619005263,320.4693601001054,2,normal,0.251294800080359,[-0.6092592592592593],[0.46296296296296297],[1],[0],[0],[2.251294800080359],320.46982670016587,320.4846818000078,320.78484970051795,322.03654700051993,,,,,,,,,TestPilot,001,2024-11-13_11h07.18.248,Foreperiod_task,2024.2.1post4,60.094312214030396,2024-11-13 11h07.33.478345 -0800,
96,0,96,[-0.6092592592592593],[0.46296296296296297],[1],[0],[0],[2.3185049006715417],,,,0,0,0,0,96,0,96,0,322.0525492001325,,,,,,,,,,,,322.03683840017766,322.0525492001325,0.0003161998465657234,322.0525492001325,322.0525492001325,322.25261989980936,324.0375577006489,324.0375577006489,324.0375577006489,324.0544233005494,324.35615930054337,2,normal,0.3185049006715417,[-0.6092592592592593],[0.46296296296296297],[1],[0],[0],[2.3185049006715417],324.35653780028224,324.3712432999164,324.6714283004403,325.85579940024763,,,,,,,,,TestPilot,001,2024-11-13_11h07.18.248,Foreperiod_task,2024.2.1post4,60.094312214030396,2024-11-13 11h07.33.478345 -0800,
97,0,97,[-0.6092592592592593],[0.46296296296296297],[1],[0],[0],[0.9180584000423551],,,,0,0,0,0,97,0,97,0,325.8725519999862,,,,,,,,,,,,325.85597120039165,325.8725519999862,0.00017650052905082703,325.8725519999862,325.8725519999862,326.0725375004113,326.3562288004905,326.3562288004905,326.3562288004905,326.37275280058384,326.7748038005084,0.5,normal,0.41805840004235506,[-0.6092592592592593],[0.46296296296296297],[1],[0],[0],[0.9180584000423551],326.7752183005214,326.7898005004972,327.0901182005182,328.00731969997287,,,,,,,,,TestPilot,001,2024-11-13_11h07.18.248,Foreperiod_task,2024.2.1post4,60.094312214030396,2024-11-13 11h07.33.478345 -0800,
98,0,98,[-0.6092592592592593],[0.46296296296296297],[1],[0],[0],[2.3195188995450735],,,,0,0,0,0,98,0,98,0,328.0241745002568,,,,,,,,,,,,328.0074837002903,328.0241745002568,0.0001734001561999321,328.0241745002568,328.0241745002568,328.2243773005903,330.0087948003784,330.0087948003784,330.0087948003784,330.0258865002543,330.32773160003126,2,normal,0.3195188995450735,[-0.6092592592592593],[0.46296296296296297],[1],[0],[0],[2.3195188995450735],330.3281852006912,330.3428253000602,330.6427226001397,331.7947880998254,,,,,,,,,TestPilot,001,2024-11-13_11h07.18.248,Foreperiod_task,2024.2.1post4,60.094312214030396,2024-11-13 11h07.33.478345 -0800,
99,0,99,[-0.6092592592592593],[0.46296296296296297],[1],[0],[0],[2.2680609999224544],,,,0,0,0,0,99,0,99,0,331.8106662007049,,,,,,,,,,,,331.7951108003035,331.8106662007049,0.00033129937946796417,331.8106662007049,331.8106662007049,332.01024849992245,333.79570019990206,333.79570019990206,333.79570019990206,333.8123762002215,334.06393980048597,2,normal,0.26806099992245436,[-0.6092592592592593],[0.46296296296296297],[1],[0],[0],[2.2680609999224544],334.06434170063585,334.0792934000492,334.3796337004751,335.5313904006034,,,,,,,,,TestPilot,001,2024-11-13_11h07.18.248,Foreperiod_task,2024.2.1post4,60.094312214030396,2024-11-13 11h07.33.478345 -0800,
0,0,0,,,,,,,space,123.81062630005181,None,0,0,0,0,,,,,,,,,,,,,,,,,,,,,,,,,,,,,,,,,,,,,,,,,,335.5472485003993,335.5504753999412,336.53134880028665,460.35162829980254,space,123.81062630005181,None,TestPilot,001,2024-11-13_11h07.18.248,Foreperiod_task,2024.2.1post4,60.094312214030396,2024-11-13 11h07.33.478345 -0800,
0,0,0,[-0.6925925925925925],[0.41944444444444445],[1],[0],[0],[2.4839207995682955],,,,1,0,1,0,0,0,0,0,460.36723749991506,,,,,,,,,,,,460.3530112002045,460.36723749991506,0.0013565002009272575,460.36723749991506,460.36723749991506,460.5677083004266,462.3526698006317,462.3526698006317,462.3526698006317,462.369338599965,462.83759460039437,2,normal,0.4839207995682955,[-0.6925925925925925],[0.41944444444444445],[1],[0],[0],[2.4839207995682955],462.83790670055896,462.85306739993393,463.15340700000525,464.0701887002215,,,,,,,,,TestPilot,001,2024-11-13_11h07.18.248,Foreperiod_task,2024.2.1post4,60.094312214030396,2024-11-13 11h07.33.478345 -0800,
1,0,1,[-0.43796296296296294],[-0.2824074074074074],[1],[0],[0],[2.3030387004837394],,,,1,0,1,0,1,0,1,0,464.0869028000161,,,,,,,,,,,,464.07029050029814,464.0869028000161,0.00010580010712146759,464.0869028000161,464.0869028000161,464.287314100191,466.0723902005702,466.0723902005702,466.0723902005702,466.08911340031773,466.3739929003641,2,normal,0.3030387004837394,[-0.43796296296296294],[-0.2824074074074074],[1],[0],[0],[2.3030387004837394],466.3743815002963,466.38938110042363,466.6896559000015,467.59045320004225,,,,,,,,,TestPilot,001,2024-11-13_11h07.18.248,Foreperiod_task,2024.2.1post4,60.094312214030396,2024-11-13 11h07.33.478345 -0800,
2,0,2,[-0.43796296296296294],[-0.2824074074074074],[1],[0],[0],[2.418824099935591],,,,1,0,1,0,2,0,2,0,467.60670740064234,,,,,,,,,,,,467.59069680050015,467.60670740064234,0.0002589002251625061,467.60670740064234,467.60670740064234,467.8071355000138,469.59203820023686,469.59203820023686,469.59203820023686,469.60875510051847,470.0103210005909,2,normal,0.4188240999355912,[-0.43796296296296294],[-0.2824074074074074],[1],[0],[0],[2.418824099935591],470.0107337003574,470.02626670058817,470.3259190004319,471.4611640004441,,,,,,,,,TestPilot,001,2024-11-13_11h07.18.248,Foreperiod_task,2024.2.1post4,60.094312214030396,2024-11-13 11h07.33.478345 -0800,
3,0,3,[-0.43796296296296294],[-0.2824074074074074],[1],[0],[0],[2.401354799978435],,,,1,0,1,0,3,0,3,0,471.4769373005256,,,,,,,,,,,,471.46148050017655,471.4769373005256,0.0003233999013900757,471.4769373005256,471.4769373005256,471.67718390002847,473.4618381001055,473.4618381001055,473.4618381001055,473.47836070042104,473.86365250032395,2,normal,0.40135479997843504,[-0.43796296296296294],[-0.2824074074074074],[1],[0],[0],[2.401354799978435],473.86406789999455,473.8787700999528,474.1792106004432,475.3976647006348,,,,,,,,,TestPilot,001,2024-11-13_11h07.18.248,Foreperiod_task,2024.2.1post4,60.094312214030396,2024-11-13 11h07.33.478345 -0800,
4,0,4,[-0.43796296296296294],[-0.2824074074074074],[1],[0],[0],[0.8991401996463537],,,,1,0,1,0,4,0,4,0,475.41346260067075,,,,,,,,,,,,475.3979192003608,475.41346260067075,0.00027159973978996277,475.41346260067075,475.41346260067075,475.61366210039705,475.89731740020216,475.89731740020216,475.89731740020216,475.9135367004201,476.2974959006533,0.5,normal,0.3991401996463537,[-0.43796296296296294],[-0.2824074074074074],[1],[0],[0],[0.8991401996463537],476.29769130051136,476.3137209005654,476.61462870053947,477.81627930048853,,,,,,,,,TestPilot,001,2024-11-13_11h07.18.248,Foreperiod_task,2024.2.1post4,60.094312214030396,2024-11-13 11h07.33.478345 -0800,
5,0,5,[-0.43796296296296294],[-0.2824074074074074],[1],[0],[0],[2.217866400256753],,,,1,0,1,0,5,0,5,0,477.83219819981605,,,,,,,,,,,,477.81668800022453,477.83219819981605,0.000418100506067276,477.83219819981605,477.83219819981605,478.03237040061504,479.81758270040154,479.81758270040154,479.81758270040154,479.8339096000418,480.03526640031487,2,normal,0.21786640025675297,[-0.43796296296296294],[-0.2824074074074074],[1],[0],[0],[2.217866400256753],480.035616800189,480.0506292004138,480.3508846005425,481.3858603006229,,,,,,,,,TestPilot,001,2024-11-13_11h07.18.248,Foreperiod_task,2024.2.1post4,60.094312214030396,2024-11-13 11h07.33.478345 -0800,
6,0,6,[-0.43796296296296294],[-0.2824074074074074],[1],[0],[0],[2.2516530994325876],,,,1,0,1,0,6,0,6,0,481.40184549987316,,,,,,,,,,,,481.38617399986833,481.40184549987316,0.00032560061663389206,481.40184549987316,481.40184549987316,481.6019092006609,483.38721489999443,483.38721489999443,483.38721489999443,483.4035472003743,483.6387296002358,2,normal,0.2516530994325876,[-0.43796296296296294],[-0.2824074074074074],[1],[0],[0],[2.2516530994325876],483.6391511000693,483.653711900115,483.95389360003173,484.97210280038416,,,,,,,,,TestPilot,001,2024-11-13_11h07.18.248,Foreperiod_task,2024.2.1post4,60.094312214030396,2024-11-13 11h07.33.478345 -0800,
7,0,7,[-0.43796296296296294],[-0.2824074074074074],[1],[0],[0],[2.2683140002191067],,,,1,0,1,0,7,0,7,0,484.98780960030854,,,,,,,,,,,,484.972351600416,484.98780960030854,0.00026169978082180023,484.98780960030854,484.98780960030854,485.1882079001516,486.9731961004436,486.9731961004436,486.9731961004436,486.99020740017295,487.24140090029687,2,normal,0.2683140002191067,[-0.43796296296296294],[-0.2824074074074074],[1],[0],[0],[2.2683140002191067],487.2418411998078,487.25675800070167,487.5569748003036,488.87529730051756,,,,,,,,,TestPilot,001,2024-11-13_11h07.18.248,Foreperiod_task,2024.2.1post4,60.094312214030396,2024-11-13 11h07.33.478345 -0800,
8,0,8,[-0.43796296296296294],[-0.2824074074074074],[1],[0],[0],[2.251515499316156],,,,1,0,1,0,8,0,8,0,488.89139190036803,,,,,,,,,,,,488.87558310013264,488.89139190036803,0.0003014998510479927,488.89139190036803,488.89139190036803,489.0915465001017,490.8765603005886,490.8765603005886,490.8765603005886,490.8935146005824,491.1277900999412,2,normal,0.2515154993161559,[-0.43796296296296294],[-0.2824074074074074],[1],[0],[0],[2.251515499316156],491.1281949002296,491.1432687006891,491.4435792006552,492.8120223004371,,,,,,,,,TestPilot,001,2024-11-13_11h07.18.248,Foreperiod_task,2024.2.1post4,60.094312214030396,2024-11-13 11h07.33.478345 -0800,
9,0,9,[-0.3472222222222222],[-0.2953703703703704],[1],[0],[0],[0.6337194005027413],,,,1,0,1,0,9,0,9,0,492.82818910013884,,,,,,,,,,,,492.81228969991207,492.82818910013884,0.0002969997003674507,492.82818910013884,492.82818910013884,493.0281937001273,493.3118706000969,493.3118706000969,493.3118706000969,493.3285320000723,493.44685429986566,0.5,normal,0.13371940050274134,[-0.3472222222222222],[-0.2953703703703704],[1],[0],[0],[0.6337194005027413],493.44737370032817,493.4621561001986,493.76214350014925,494.9805112006143,,,,,,,,,TestPilot,001,2024-11-13_11h07.18.248,Foreperiod_task,2024.2.1post4,60.094312214030396,2024-11-13 11h07.33.478345 -0800,
10,0,10,[-0.3472222222222222],[-0.2953703703703704],[1],[0],[0],[1.7011018004268408],,,,1,0,1,0,10,0,10,0,494.9964271998033,,,,,,,,,,,,494.9807716999203,494.9964271998033,0.00027529988437891006,494.9964271998033,494.9964271998033,495.19676529988647,496.41428290028125,496.41428290028125,496.41428290028125,496.430933999829,496.6826822999865,1.4216852252970213,surprise,0.27941657512981943,[-0.3472222222222222],[-0.2953703703703704],[1],[0],[0],[1.7011018004268408],496.6832865998149,496.6978536006063,496.99795230012387,497.9996931999922,,,,,,,,,TestPilot,001,2024-11-13_11h07.18.248,Foreperiod_task,2024.2.1post4,60.094312214030396,2024-11-13 11h07.33.478345 -0800,
11,0,11,[-0.3472222222222222],[-0.2953703703703704],[1],[0],[0],[2.384866200387478],,,,1,0,1,0,11,0,11,0,498.01554210018367,,,,,,,,,,,,497.9999557007104,498.01554210018367,0.0002847006544470787,498.01554210018367,498.01554210018367,498.2158679999411,500.0006255004555,500.0006255004555,500.0006255004555,500.01729340013117,500.3855232000351,2,normal,0.3848662003874779,[-0.3472222222222222],[-0.2953703703703704],[1],[0],[0],[2.384866200387478],500.3858695998788,500.40124400053173,500.7013975000009,502.06984170060605,,,,,,,,,TestPilot,001,2024-11-13_11h07.18.248,Foreperiod_task,2024.2.1post4,60.094312214030396,2024-11-13 11h07.33.478345 -0800,
12,0,12,[-0.3472222222222222],[-0.2953703703703704],[1],[0],[0],[1.0678560994565487],,,,1,0,1,0,12,0,12,0,502.0855196006596,,,,,,,,,,,,502.07008950039744,502.0855196006596,0.00025999918580055237,502.0855196006596,502.0855196006596,502.28588850051165,502.569513999857,502.569513999857,502.569513999857,502.58627989981323,503.1387809002772,0.5,normal,0.5678560994565487,[-0.3472222222222222],[-0.2953703703703704],[1],[0],[0],[1.0678560994565487],503.13922870066017,503.1528666000813,503.453990300186,504.8052556999028,,,,,,,,,TestPilot,001,2024-11-13_11h07.18.248,Foreperiod_task,2024.2.1post4,60.094312214030396,2024-11-13 11h07.33.478345 -0800,
13,0,13,[-0.3472222222222222],[-0.2953703703703704],[1],[0],[0],[0.9005872998386621],,,,1,0,1,0,13,0,13,0,504.8212849004194,,,,,,,,,,,,504.8055357998237,504.8212849004194,0.00029639992862939835,504.8212849004194,504.8212849004194,505.02139640040696,505.30507840029895,505.30507840029895,505.30507840029895,505.3217186005786,505.7069490002468,0.5,normal,0.40058729983866215,[-0.3472222222222222],[-0.2953703703703704],[1],[0],[0],[0.9005872998386621],505.7074027005583,505.72201209980994,506.02219960000366,507.2238680999726,,,,,,,,,TestPilot,001,2024-11-13_11h07.18.248,Foreperiod_task,2024.2.1post4,60.094312214030396,2024-11-13 11h07.33.478345 -0800,
14,0,14,[-0.3472222222222222],[-0.2953703703703704],[1],[0],[0],[0.7669008998200297],,,,1,0,1,0,14,0,14,0,507.2402536002919,,,,,,,,,,,,507.22412900067866,507.2402536002919,0.00027140043675899506,507.2402536002919,507.2402536002919,507.44009970035404,507.7237702999264,507.7237702999264,507.7237702999264,507.74035030044615,507.9916861001402,0.5,normal,0.26690089982002974,[-0.3472222222222222],[-0.2953703703703704],[1],[0],[0],[0.7669008998200297],507.99216890055686,508.0067870998755,508.30763030052185,509.42601339984685,,,,,,,,,TestPilot,001,2024-11-13_11h07.18.248,Foreperiod_task,2024.2.1post4,60.094312214030396,2024-11-13 11h07.33.478345 -0800,
15,0,15,[-0.3472222222222222],[-0.2953703703703704],[1],[0],[0],[0.9660184001550078],,,,1,0,1,0,15,0,15,0,509.4418446002528,,,,,,,,,,,,509.4263206999749,509.4418446002528,0.0003182999789714813,509.4418446002528,509.4418446002528,509.6418789001182,509.92565640062094,509.92565640062094,509.92565640062094,509.94221340026706,510.3928601006046,0.5,normal,0.46601840015500784,[-0.3472222222222222],[-0.2953703703703704],[1],[0],[0],[0.9660184001550078],510.3931209007278,510.4087832001969,510.7094561001286,511.92786820046604,,,,,,,,,TestPilot,001,2024-11-13_11h07.18.248,Foreperiod_task,2024.2.1post4,60.094312214030396,2024-11-13 11h07.33.478345 -0800,
16,0,16,[-0.3472222222222222],[-0.2953703703703704],[1],[0],[0],[0.8669181996956468],,,,1,0,1,0,16,0,16,0,511.9438415998593,,,,,,,,,,,,511.92814480047673,511.9438415998593,0.0002944003790616989,511.9438415998593,511.9438415998593,512.1439976999536,512.4272517003119,512.4272517003119,512.4272517003119,512.4442317001522,512.795892899856,0.5,normal,0.36691819969564676,[-0.3472222222222222],[-0.2953703703703704],[1],[0],[0],[0.8669181996956468],512.7963356003165,512.8112186007202,513.1118157003075,514.1129510998726,,,,,,,,,TestPilot,001,2024-11-13_11h07.18.248,Foreperiod_task,2024.2.1post4,60.094312214030396,2024-11-13 11h07.33.478345 -0800,
17,0,17,[-0.3472222222222222],[-0.2953703703703704],[1],[0],[0],[0.8341694995760918],,,,1,0,1,0,17,0,17,0,514.128973800689,,,,,,,,,,,,514.1132295001298,514.128973800689,0.0002967994660139084,514.128973800689,514.128973800689,514.3292263001204,514.6127539006993,514.6127539006993,514.6127539006993,514.6298096003011,514.9482415998355,0.5,normal,0.33416949957609177,[-0.3472222222222222],[-0.2953703703703704],[1],[0],[0],[0.8341694995760918],514.948673600331,514.9630449004471,515.2632416002452,516.3148595001549,,,,,,,,,TestPilot,001,2024-11-13_11h07.18.248,Foreperiod_task,2024.2.1post4,60.094312214030396,2024-11-13 11h07.33.478345 -0800,
18,0,18,[-0.3472222222222222],[-0.2953703703703704],[1],[0],[0],[0.7836820995435119],,,,1,0,1,0,18,0,18,0,516.3308466002345,,,,,,,,,,,,516.3151561003178,516.3308466002345,0.00033689942210912704,516.3308466002345,516.3308466002345,516.5310516003519,516.8149938005954,516.8149938005954,516.8149938005954,516.8314255001023,517.0996770001948,0.5,normal,0.28368209954351187,[-0.3472222222222222],[-0.2953703703703704],[1],[0],[0],[0.7836820995435119],517.10009610001,517.1148110004142,517.4141799006611,518.7835764000192,,,,,,,,,TestPilot,001,2024-11-13_11h07.18.248,Foreperiod_task,2024.2.1post4,60.094312214030396,2024-11-13 11h07.33.478345 -0800,
19,0,19,[-0.3472222222222222],[-0.2953703703703704],[1],[0],[0],[0.3331866003572941],,,,1,0,1,0,19,0,19,0,518.799488699995,,,,,,,,,,,,518.7838514000177,518.799488699995,0.0002935994416475296,518.799488699995,518.799488699995,518.9998484998941,,,,,519.1178632006049,2,normal,-1.666813399642706,[-0.3472222222222222],[-0.2953703703703704],[1],[0],[0],[0.3331866003572941],519.1182631999254,519.1330997999758,519.4333188999444,520.4516623001546,519.1330997999758,,,,,,,,TestPilot,001,2024-11-13_11h07.18.248,Foreperiod_task,2024.2.1post4,60.094312214030396,2024-11-13 11h07.33.478345 -0800,
20,0,20,[-0.3472222222222222],[-0.2953703703703704],[1],[0],[0],[0.9833326991647482],,,,1,0,1,0,20,0,20,0,520.4676446998492,,,,,,,,,,,,520.451922500506,520.4676446998492,0.0002675997093319893,520.4676446998492,520.4676446998492,520.6677852999419,520.9513848004863,520.9513848004863,520.9513848004863,520.967997699976,521.435911600478,0.5,normal,0.4833326991647482,[-0.3472222222222222],[-0.2953703703703704],[1],[0],[0],[0.9833326991647482],521.4362294003367,521.4519517999142,521.7520594000816,522.8034800998867,,,,,,,,,TestPilot,001,2024-11-13_11h07.18.248,Foreperiod_task,2024.2.1post4,60.094312214030396,2024-11-13 11h07.33.478345 -0800,
21,0,21,[-0.3472222222222222],[-0.2953703703703704],[1],[0],[0],[0.8500840002670884],,,,1,0,1,0,21,0,21,0,522.8197017004713,,,,,,,,,,,,522.8037620000541,522.8197017004713,0.00029799994081258774,522.8197017004713,522.8197017004713,523.0198265006766,523.30333300028,523.30333300028,523.30333300028,523.3199768001214,523.6545680006966,0.5,normal,0.3500840002670884,[-0.3472222222222222],[-0.2953703703703704],[1],[0],[0],[0.8500840002670884],523.6549276998267,523.6702131005004,523.9705003006384,525.3389413002878,,,,,,,,,TestPilot,001,2024-11-13_11h07.18.248,Foreperiod_task,2024.2.1post4,60.094312214030396,2024-11-13 11h07.33.478345 -0800,
22,0,22,[-0.3472222222222222],[-0.2953703703703704],[1],[0],[0],[2.4848998999223113],,,,1,0,1,0,22,0,22,0,525.3549792002887,,,,,,,,,,,,525.3392042005435,525.3549792002887,0.00027799978852272034,525.3549792002887,525.3549792002887,525.5551100000739,527.3399574002251,527.3399574002251,527.3399574002251,527.3567260000855,527.8248898005113,2,normal,0.4848998999223113,[-0.3472222222222222],[-0.2953703703703704],[1],[0],[0],[2.4848998999223113],527.8252651002258,527.8401875998825,528.1407655002549,529.0589960999787,,,,,,,,,TestPilot,001,2024-11-13_11h07.18.248,Foreperiod_task,2024.2.1post4,60.094312214030396,2024-11-13 11h07.33.478345 -0800,
23,0,23,[-0.3472222222222222],[-0.2953703703703704],[1],[0],[0],[2.285073700360954],,,,1,0,1,0,23,0,23,0,529.0747984005138,,,,,,,,,,,,529.0592613006011,529.0747984005138,0.00028110016137361526,529.0747984005138,529.0747984005138,529.2749886000529,531.0598688004538,531.0598688004538,531.0598688004538,531.0765173006803,531.3451382005587,2,normal,0.2850737003609538,[-0.3472222222222222],[-0.2953703703703704],[1],[0],[0],[2.285073700360954],531.3455766001716,531.3600468998775,531.6604933999479,532.578538400121,,,,,,,,,TestPilot,001,2024-11-13_11h07.18.248,Foreperiod_task,2024.2.1post4,60.094312214030396,2024-11-13 11h07.33.478345 -0800,
24,0,24,[-0.3472222222222222],[-0.2953703703703704],[1],[0],[0],[1.5175339002162218],,,,1,0,1,0,24,0,24,0,532.5944051006809,,,,,,,,,,,,532.5788186006248,532.5944051006809,0.00029450003057718277,532.5944051006809,532.5944051006809,532.7945142006502,533.7119158999994,533.7119158999994,533.7119158999994,533.7286497000605,534.0974537003785,1.1240881059261567,surprise,0.3934457942900651,[-0.3472222222222222],[-0.2953703703703704],[1],[0],[0],[1.5175339002162218],534.0979240005836,534.1122709000483,534.4126374004409,535.7147714998573,,,,,,,,,TestPilot,001,2024-11-13_11h07.18.248,Foreperiod_task,2024.2.1post4,60.094312214030396,2024-11-13 11h07.33.478345 -0800,
25,0,25,[-0.3472222222222222],[-0.2953703703703704],[1],[0],[0],[1.4834719998762012],,,,1,0,1,0,25,0,25,0,535.7302005002275,,,,,,,,,,,,535.7150794006884,535.7302005002275,0.0003295997157692909,535.7302005002275,535.7302005002275,535.930483000353,536.9148818999529,536.9148818999529,536.9148818999529,536.9313965002075,537.199413199909,1.1893055641787051,surprise,0.294166435697496,[-0.3472222222222222],[-0.2953703703703704],[1],[0],[0],[1.4834719998762012],537.1998645002022,537.2145651001483,537.5151123004034,538.5834073005244,,,,,,,,,TestPilot,001,2024-11-13_11h07.18.248,Foreperiod_task,2024.2.1post4,60.094312214030396,2024-11-13 11h07.33.478345 -0800,
26,0,26,[-0.3472222222222222],[-0.2953703703703704],[1],[0],[0],[0.8836596002802253],,,,1,0,1,0,26,0,26,0,538.5994146000594,,,,,,,,,,,,538.5836847005412,538.5994146000594,0.0003049001097679138,538.5994146000594,538.5994146000594,538.7995616998523,539.0832445006818,539.0832445006818,539.0832445006818,539.0998498005792,539.46813020017,0.5,normal,0.3836596002802253,[-0.3472222222222222],[-0.2953703703703704],[1],[0],[0],[0.8836596002802253],539.4685605000705,539.4834109004587,539.7841394999996,541.0687418002635,,,,,,,,,TestPilot,001,2024-11-13_11h07.18.248,Foreperiod_task,2024.2.1post4,60.094312214030396,2024-11-13 11h07.33.478345 -0800,
27,0,27,[-0.3472222222222222],[-0.2953703703703704],[1],[0],[0],[0.7844933001324534],,,,1,0,1,0,27,0,27,0,541.0848341006786,,,,,,,,,,,,541.0690092006698,541.0848341006786,0.0002804994583129883,541.0848341006786,541.0848341006786,541.2849575001746,541.56884310022,541.56884310022,541.56884310022,541.585346000269,541.8543289005756,0.5,normal,0.28449330013245344,[-0.3472222222222222],[-0.2953703703703704],[1],[0],[0],[0.7844933001324534],541.854853999801,541.8690470000729,542.1691439999267,543.1378468004987,,,,,,,,,TestPilot,001,2024-11-13_11h07.18.248,Foreperiod_task,2024.2.1post4,60.094312214030396,2024-11-13 11h07.33.478345 -0800,
28,0,28,[-0.3472222222222222],[-0.2953703703703704],[1],[0],[0],[2.4347872994840145],,,,1,0,1,0,28,0,28,0,543.1535259000957,,,,,,,,,,,,543.1381686003879,543.1535259000957,0.0003300001844763756,543.1535259000957,543.1535259000957,543.3535393001512,545.1380868004635,545.1380868004635,545.1380868004635,545.1548984004185,545.5740061001852,2,normal,0.4347872994840145,[-0.3472222222222222],[-0.2953703703703704],[1],[0],[0],[2.4347872994840145],545.5745430998504,545.5888897003606,545.8889049999416,547.1072507007048,,,,,,,,,TestPilot,001,2024-11-13_11h07.18.248,Foreperiod_task,2024.2.1post4,60.094312214030396,2024-11-13 11h07.33.478345 -0800,
29,0,29,[-0.3472222222222222],[-0.2953703703703704],[1],[0],[0],[0.8160132002085447],,,,1,0,1,0,29,0,29,0,547.12329480052,,,,,,,,,,,,547.1075330004096,547.12329480052,0.00029799994081258774,547.12329480052,547.12329480052,547.3226668005809,547.607006800361,547.607006800361,547.607006800361,547.623308500275,547.9239760003984,0.5,normal,0.31601320020854473,[-0.3472222222222222],[-0.2953703703703704],[1],[0],[0],[0.8160132002085447],547.9243124006316,547.9400853998959,548.2407261999324,549.4079704005271,,,,,,,,,TestPilot,001,2024-11-13_11h07.18.248,Foreperiod_task,2024.2.1post4,60.094312214030396,2024-11-13 11h07.33.478345 -0800,
30,0,30,[-0.3472222222222222],[-0.2953703703703704],[1],[0],[0],[2.436397699639201],,,,1,0,1,0,30,0,30,0,549.4245487004519,,,,,,,,,,,,549.4080810006708,549.4245487004519,0.00011450052261352539,549.4245487004519,549.4245487004519,549.6250760005787,551.4100354006514,551.4100354006514,551.4100354006514,551.4267281005159,551.8451546002179,2,normal,0.43639769963920116,[-0.3472222222222222],[-0.2953703703703704],[1],[0],[0],[2.436397699639201],551.8456466998905,551.8604787001386,552.1606399007142,553.4291385998949,,,,,,,,,TestPilot,001,2024-11-13_11h07.18.248,Foreperiod_task,2024.2.1post4,60.094312214030396,2024-11-13 11h07.33.478345 -0800,
31,0,31,[-0.3472222222222222],[-0.2953703703703704],[1],[0],[0],[2.3347530998289585],,,,1,0,1,0,31,0,31,0,553.4450244000182,,,,,,,,,,,,553.4293977003545,553.4450244000182,0.00027330033481121063,553.4450244000182,553.4450244000182,553.6452165003866,555.4300947999582,555.4300947999582,555.4300947999582,555.4467364000157,555.7650033002719,2,normal,0.3347530998289585,[-0.3472222222222222],[-0.2953703703703704],[1],[0],[0],[2.3347530998289585],555.7655683001503,555.780834400095,556.0807926999405,557.2654087999836,,,,,,,,,TestPilot,001,2024-11-13_11h07.18.248,Foreperiod_task,2024.2.1post4,60.094312214030396,2024-11-13 11h07.33.478345 -0800,
32,0,32,[-0.3472222222222222],[-0.2953703703703704],[1],[0],[0],[0.9171345001086593],,,,1,0,1,0,32,0,32,0,557.2815327998251,,,,,,,,,,,,557.2656775005162,557.2815327998251,0.0002851998433470726,557.2815327998251,557.2815327998251,557.4819505000487,557.7653277004138,557.7653277004138,557.7653277004138,557.7815471999347,558.183441400528,0.5,normal,0.41713450010865927,[-0.3472222222222222],[-0.2953703703703704],[1],[0],[0],[0.9171345001086593],558.1838035006076,558.1989924004301,558.4984654998407,559.4675572002307,,,,,,,,,TestPilot,001,2024-11-13_11h07.18.248,Foreperiod_task,2024.2.1post4,60.094312214030396,2024-11-13 11h07.33.478345 -0800,
33,0,33,[-0.3472222222222222],[-0.2953703703703704],[1],[0],[0],[0.8497889004647732],,,,1,0,1,0,33,0,33,0,559.4833631999791,,,,,,,,,,,,559.4678405998275,559.4833631999791,0.0002950001507997513,559.4833631999791,559.4833631999791,559.6835051001981,559.9671790003777,559.9671790003777,559.9671790003777,559.9838187005371,560.3182794004679,0.5,normal,0.3497889004647732,[-0.3472222222222222],[-0.2953703703703704],[1],[0],[0],[0.8497889004647732],560.3186448998749,560.3341000005603,560.6344263004139,561.7527771005407,,,,,,,,,TestPilot,001,2024-11-13_11h07.18.248,Foreperiod_task,2024.2.1post4,60.094312214030396,2024-11-13 11h07.33.478345 -0800,
34,0,34,[-0.3472222222222222],[-0.2953703703703704],[1],[0],[0],[0.849902200512588],,,,1,0,1,0,34,0,34,0,561.7686192002147,,,,,,,,,,,,561.7530407002196,561.7686192002147,0.0002808002755045891,561.7686192002147,561.7686192002147,561.9687767000869,562.2528153005987,562.2528153005987,562.2528153005987,562.2692520003766,562.6033759005368,0.5,normal,0.349902200512588,[-0.3472222222222222],[-0.2953703703703704],[1],[0],[0],[0.849902200512588],562.6035451004282,562.6190287005156,562.9198888000101,564.2047100001946,,,,,,,,,TestPilot,001,2024-11-13_11h07.18.248,Foreperiod_task,2024.2.1post4,60.094312214030396,2024-11-13 11h07.33.478345 -0800,
35,0,35,[-0.3472222222222222],[-0.2953703703703704],[1],[0],[0],[2.3342963997274637],,,,1,0,1,0,35,0,35,0,564.2207078998908,,,,,,,,,,,,564.2049552006647,564.2207078998908,0.0002608001232147217,564.2207078998908,564.2207078998908,564.4208353003487,566.2056114999577,566.2056114999577,566.2056114999577,566.2223677001894,566.5396979004145,2,normal,0.3342963997274637,[-0.3472222222222222],[-0.2953703703703704],[1],[0],[0],[2.3342963997274637],566.539867900312,566.5554496003315,566.8562238002196,567.7577635999769,,,,,,,,,TestPilot,001,2024-11-13_11h07.18.248,Foreperiod_task,2024.2.1post4,60.094312214030396,2024-11-13 11h07.33.478345 -0800,
36,0,36,[-0.3472222222222222],[-0.2953703703703704],[1],[0],[0],[2.2517232997342944],,,,1,0,1,0,36,0,36,0,567.7738446006551,,,,,,,,,,,,567.7580214003101,567.7738446006551,0.00027669966220855713,567.7738446006551,567.7738446006551,567.9739423999563,569.758653299883,569.758653299883,569.758653299883,569.7753897998482,570.0105249006301,2,normal,0.2517232997342944,[-0.3472222222222222],[-0.2953703703703704],[1],[0],[0],[2.2517232997342944],570.0109453005716,570.0250597000122,570.3257475998253,571.5780182005838,,,,,,,,,TestPilot,001,2024-11-13_11h07.18.248,Foreperiod_task,2024.2.1post4,60.094312214030396,2024-11-13 11h07.33.478345 -0800,
37,0,37,[-0.3472222222222222],[-0.2953703703703704],[1],[0],[0],[2.367680300027132],,,,1,0,1,0,37,0,37,0,571.5930500999093,,,,,,,,,,,,571.5783438002691,571.5930500999093,0.0003453996032476425,571.5930500999093,571.5930500999093,571.793679700233,573.5784296998754,573.5784296998754,573.5784296998754,573.5951022002846,573.9467136003077,2,normal,0.36768030002713203,[-0.3472222222222222],[-0.2953703703703704],[1],[0],[0],[2.367680300027132],573.9470899002627,573.9620647998527,574.2625326998532,575.2138144001365,,,,,,,,,TestPilot,001,2024-11-13_11h07.18.248,Foreperiod_task,2024.2.1post4,60.094312214030396,2024-11-13 11h07.33.478345 -0800,
38,0,38,[-0.3472222222222222],[-0.2953703703703704],[1],[0],[0],[1.217161500826478],,,,1,0,1,0,38,0,38,0,575.2297280002385,,,,,,,,,,,,575.214077600278,575.2297280002385,0.00027719978243112564,575.2297280002385,575.2297280002385,575.4300608001649,575.7137462999672,575.7137462999672,575.7137462999672,575.7302651004866,576.4318892005831,0.5,normal,0.717161500826478,[-0.3472222222222222],[-0.2953703703703704],[1],[0],[0],[1.217161500826478],576.4322778005153,576.4472673004493,576.7477943999693,578.08296540007,,,,,,,,,TestPilot,001,2024-11-13_11h07.18.248,Foreperiod_task,2024.2.1post4,60.094312214030396,2024-11-13 11h07.33.478345 -0800,
39,0,39,[-0.3472222222222222],[-0.2953703703703704],[1],[0],[0],[2.4516933001577854],,,,1,0,1,0,39,0,39,0,578.0988770006225,,,,,,,,,,,,578.0832451004535,578.0988770006225,0.0002954993396997452,578.0988770006225,578.0988770006225,578.2989925006405,580.0840329006314,580.0840329006314,580.0840329006314,580.1005874006078,580.5356638999656,2,normal,0.4516933001577854,[-0.3472222222222222],[-0.2953703703703704],[1],[0],[0],[2.4516933001577854],580.5360546000302,580.5509251998737,580.8511314000934,582.0363167999312,,,,,,,,,TestPilot,001,2024-11-13_11h07.18.248,Foreperiod_task,2024.2.1post4,60.094312214030396,2024-11-13 11h07.33.478345 -0800,
40,0,40,[-0.3472222222222222],[-0.2953703703703704],[1],[0],[0],[0.8667756002396345],,,,1,0,1,0,40,0,40,0,582.0518779000267,,,,,,,,,,,,582.0365906003863,582.0518779000267,0.0002790996804833412,582.0518779000267,582.0518779000267,582.2527793999761,582.5526443002746,582.5526443002746,582.5526443002746,582.5693062003702,582.9040775001049,0.5,normal,0.3667756002396345,[-0.3472222222222222],[-0.2953703703703704],[1],[0],[0],[0.8667756002396345],582.9044419005513,582.9196701999754,583.2196689005941,584.3382418006659,,,,,,,,,TestPilot,001,2024-11-13_11h07.18.248,Foreperiod_task,2024.2.1post4,60.094312214030396,2024-11-13 11h07.33.478345 -0800,
41,0,41,[-0.3472222222222222],[-0.2953703703703704],[1],[0],[0],[2.335016000084579],,,,1,0,1,0,41,0,41,0,584.3540988005698,,,,,,,,,,,,584.3384864004329,584.3540988005698,0.0002586003392934799,584.3540988005698,584.3540988005698,584.5542785003781,586.3391131004319,586.3391131004319,586.3391131004319,586.355704200454,586.6742960000411,2,normal,0.335016000084579,[-0.3472222222222222],[-0.2953703703703704],[1],[0],[0],[2.335016000084579],586.6746696000919,586.6894120005891,586.9897380005568,588.1244983002543,,,,,,,,,TestPilot,001,2024-11-13_11h07.18.248,Foreperiod_task,2024.2.1post4,60.094312214030396,2024-11-13 11h07.33.478345 -0800,
42,0,42,[-0.3472222222222222],[-0.2953703703703704],[1],[0],[0],[0.8506468003615737],,,,1,0,1,0,42,0,42,0,588.1404172005132,,,,,,,,,,,,588.1247469000518,588.1404172005132,0.00025930069386959076,588.1404172005132,588.1404172005132,588.3400533003733,588.6244222000241,588.6244222000241,588.6244222000241,588.6412856001407,588.9762043999508,0.5,normal,0.3506468003615737,[-0.3472222222222222],[-0.2953703703703704],[1],[0],[0],[0.8506468003615737],588.9766517998651,588.9913659002632,589.2914673006162,590.3768066000193,,,,,,,,,TestPilot,001,2024-11-13_11h07.18.248,Foreperiod_task,2024.2.1post4,60.094312214030396,2024-11-13 11h07.33.478345 -0800,
43,0,43,[-0.3472222222222222],[-0.2953703703703704],[1],[0],[0],[0.8339865002781153],,,,1,0,1,0,43,0,43,0,590.3926427001134,,,,,,,,,,,,590.3770906003192,590.3926427001134,0.00030289962887763977,590.3926427001134,590.3926427001134,590.5925334002823,590.8762234002352,590.8762234002352,590.8762234002352,590.8930243002251,591.2118209004402,0.5,normal,0.3339865002781153,[-0.3472222222222222],[-0.2953703703703704],[1],[0],[0],[0.8339865002781153],591.2121883006766,591.226903299801,591.5268999999389,592.5604679007083,,,,,,,,,TestPilot,001,2024-11-13_11h07.18.248,Foreperiod_task,2024.2.1post4,60.094312214030396,2024-11-13 11h07.33.478345 -0800,
44,0,44,[-0.3472222222222222],[-0.2953703703703704],[1],[0],[0],[2.319843700155616],,,,1,0,1,0,44,0,44,0,592.5775230005383,,,,,,,,,,,,592.5605930006132,592.5775230005383,0.00013159960508346558,592.5775230005383,592.5775230005383,592.7777388002723,594.5622067004442,594.5622067004442,594.5622067004442,594.5797915998846,594.8811816005036,2,normal,0.3198437001556158,[-0.3472222222222222],[-0.2953703703703704],[1],[0],[0],[2.319843700155616],594.8816509004682,594.8962390003726,595.1962834000587,596.2146271998063,,,,,,,,,TestPilot,001,2024-11-13_11h07.18.248,Foreperiod_task,2024.2.1post4,60.094312214030396,2024-11-13 11h07.33.478345 -0800,
45,0,45,[-0.3472222222222222],[-0.2953703703703704],[1],[0],[0],[2.3184829000383615],,,,1,0,1,0,45,0,45,0,596.2306446004659,,,,,,,,,,,,596.2148966006935,596.2306446004659,0.000287800095975399,596.2306446004659,596.2306446004659,596.4308133004233,598.2156213000417,598.2156213000417,598.2156213000417,598.2323130005971,598.534091300331,2,normal,0.31848290003836155,[-0.3472222222222222],[-0.2953703703703704],[1],[0],[0],[2.3184829000383615],598.5344563005492,598.549346299842,598.8494998002425,600.0345555003732,,,,,,,,,TestPilot,001,2024-11-13_11h07.18.248,Foreperiod_task,2024.2.1post4,60.094312214030396,2024-11-13 11h07.33.478345 -0800,
46,0,46,[-0.3472222222222222],[-0.2953703703703704],[1],[0],[0],[2.2851448003202677],,,,1,0,1,0,46,0,46,0,600.0506839007139,,,,,,,,,,,,600.0348640000448,600.0506839007139,0.0003255000337958336,600.0506839007139,600.0506839007139,600.2504047006369,602.0354973999783,602.0354973999783,602.0354973999783,602.0522579001263,602.3208536002785,2,normal,0.2851448003202677,[-0.3472222222222222],[-0.2953703703703704],[1],[0],[0],[2.2851448003202677],602.3212933000177,602.3358396003023,602.6364131998271,603.8875231007114,,,,,,,,,TestPilot,001,2024-11-13_11h07.18.248,Foreperiod_task,2024.2.1post4,60.094312214030396,2024-11-13 11h07.33.478345 -0800,
47,0,47,[-0.3472222222222222],[-0.2953703703703704],[1],[0],[0],[0.8342920001596212],,,,1,0,1,0,47,0,47,0,603.9038545005023,,,,,,,,,,,,603.8877611998469,603.9038545005023,0.0002528000622987747,603.9038545005023,603.9038545005023,604.1039867000654,604.3876799000427,604.3876799000427,604.3876799000427,604.4042929001153,604.7229361003265,0.5,normal,0.33429200015962124,[-0.3472222222222222],[-0.2953703703703704],[1],[0],[0],[0.8342920001596212],604.7234896998852,604.738020000048,605.0380139006302,606.3234687000513,,,,,,,,,TestPilot,001,2024-11-13_11h07.18.248,Foreperiod_task,2024.2.1post4,60.094312214030396,2024-11-13 11h07.33.478345 -0800,
48,0,48,[-0.3472222222222222],[-0.2953703703703704],[1],[0],[0],[0.8000055002048612],,,,1,0,1,0,48,0,48,0,606.3394766002893,,,,,,,,,,,,606.3237621001899,606.3394766002893,0.0003015007823705673,606.3394766002893,606.3394766002893,606.53917440027,606.8230344001204,606.8230344001204,606.8230344001204,606.8396455999464,607.1245764000341,0.5,normal,0.30000550020486116,[-0.3472222222222222],[-0.2953703703703704],[1],[0],[0],[0.8000055002048612],607.1250055003911,607.139706700109,607.439991700463,608.7582157002762,,,,,,,,,TestPilot,001,2024-11-13_11h07.18.248,Foreperiod_task,2024.2.1post4,60.094312214030396,2024-11-13 11h07.33.478345 -0800,
49,0,49,[-0.3472222222222222],[-0.2953703703703704],[1],[0],[0],[2.2852921998128295],,,,1,0,1,0,49,0,49,0,608.7743218000978,,,,,,,,,,,,608.758445000276,608.7743218000978,0.00023750029504299164,608.7743218000978,608.7743218000978,608.9746695999056,610.7595198005438,610.7595198005438,610.7595198005438,610.776051800698,611.0444831000641,2,normal,0.2852921998128295,[-0.3472222222222222],[-0.2953703703703704],[1],[0],[0],[2.2852921998128295],611.0449517006055,611.0598336001858,611.3598960004747,612.5116814002395,,,,,,,,,TestPilot,001,2024-11-13_11h07.18.248,Foreperiod_task,2024.2.1post4,60.094312214030396,2024-11-13 11h07.33.478345 -0800,
50,0,50,[-0.3472222222222222],[-0.2953703703703704],[1],[0],[0],[2.317778999917209],,,,1,0,1,0,50,0,50,0,612.5277422005311,,,,,,,,,,,,612.5119683006778,612.5277422005311,0.00030479952692985535,612.5277422005311,612.5277422005311,612.7274889005348,614.5125125003979,614.5125125003979,614.5125125003979,614.5294037004933,614.8305098004639,2,normal,0.31777899991720915,[-0.3472222222222222],[-0.2953703703703704],[1],[0],[0],[2.317778999917209],614.8310238001868,614.8462883001193,615.1463686004281,616.0811144998297,,,,,,,,,TestPilot,001,2024-11-13_11h07.18.248,Foreperiod_task,2024.2.1post4,60.094312214030396,2024-11-13 11h07.33.478345 -0800,
