thisN,thisTrialN,thisRepN,mouse.x,mouse.y,mouse.leftButton,mouse.midButton,mouse.rightButton,mouse.time,Intertrial_Mouse.x,Intertrial_Mouse.y,Intertrial_Mouse.leftButton,Intertrial_Mouse.midButton,Intertrial_Mouse.rightButton,Intertrial_Mouse.time,trials_3.thisRepN,trials_3.thisTrialN,trials_3.thisN,trials_3.thisIndex,trials_2.thisRepN,trials_2.thisTrialN,trials_2.thisN,trials_2.thisIndex,thisRow.t,notes,Welcome_Screen.started,Welcome_Text.started,mouse_2.started,Welcome_Screen.stopped,mouse_2.x,mouse_2.y,mouse_2.leftButton,mouse_2.midButton,mouse_2.rightButton,mouse_2.time,Trial_2.started,PLUS_FP.started,mouse.started,Photodiode_plus.started,Photodiode_plus.stopped,PLUS_FP.stopped,polygon.started,Photodiode_polygon.started,Photodiode_polygon.stopped,Trial_2.stopped,FixDur,Type,RT,trials_2.mouse.x,trials_2.mouse.y,trials_2.mouse.leftButton,trials_2.mouse.midButton,trials_2.mouse.rightButton,trials_2.mouse.time,Intertrial_Period.started,Photodiode_2.started,Intertrial_Mouse.started,Photodiode_2.stopped,Intertrial_Period.stopped,trials_2.Intertrial_Mouse.x,trials_2.Intertrial_Mouse.y,trials_2.Intertrial_Mouse.leftButton,trials_2.Intertrial_Mouse.midButton,trials_2.Intertrial_Mouse.rightButton,trials_2.Intertrial_Mouse.time,text.started,BREAK.started,key_resp_5.started,text_3.started,participant,session,date,expName,psychopyVersion,frameRate,expStart,
,,,,,,,,,,,,,,,,,,,,,,,,,0.019203700008802116,0.03650990000460297,0.018679399974644184,19.84166430006735,[0.48833333333333334],[0.18],[1],[0],[0],[19.821548900101334],,,,,,,,,,,,,,,,,,,,,,,,,,,,,,,,,,,190121,001,2025-01-26_17h42.36.042,Foreperiod_task,2024.2.4,89.49578962393147,2025-01-26 17h42.46.816475 -0800,
0,0,0,[0.48833333333333334],[0.18],[1],[0],[0],[2.6610590999480337],[],[],[],[],[],[],0,0,0,0,0,0,0,0,19.858430600026622,,,,,,,,,,,,19.846204700064845,19.858430600026622,0.004457800067029893,19.858430600026622,20.05829169997014,21.83580450003501,21.83580450003501,21.83580450003501,21.847103400039487,22.508239999995567,2,task,0.6610590999480337,[0.48833333333333334],[0.18],[1],[0],[0],[2.6610590999480337],22.50853500002995,22.52459390007425,0.00012129999231547117,22.824760099989362,24.15153380006086,[],[],[],[],[],[],,,,,190121,001,2025-01-26_17h42.36.042,Foreperiod_task,2024.2.4,89.49578962393147,2025-01-26 17h42.46.816475 -0800,
1,0,1,[0.48833333333333334],[0.18],[1],[0],[0],[2.277281899936497],[],[],[],[],[],[],0,0,0,0,1,0,1,0,24.158687800052576,,,,,,,,,,,,24.151865900028497,24.158687800052576,0.00022829999215900898,24.158687800052576,24.358197099994868,26.148001700057648,26.148001700057648,26.148001700057648,26.15860690001864,26.43061789998319,2,task,0.2772818999364972,[0.48833333333333334],[0.18],[1],[0],[0],[2.277281899936497],26.43090390006546,26.435992300044745,0.00011820008512586355,26.73640890000388,27.962063600076362,[],[],[],[],[],[],,,,,190121,001,2025-01-26_17h42.36.042,Foreperiod_task,2024.2.4,89.49578962393147,2025-01-26 17h42.46.816475 -0800,
2,0,2,[0.48833333333333334],[0.18],[1],[0],[0],[2.3671714999945834],[],[],[],[],[],[],0,0,0,0,2,0,2,0,27.96895999996923,,,,,,,,,,,,27.96232749999035,27.96895999996923,0.00023520004469901323,27.96895999996923,28.169227999984287,29.958011500071734,29.958011500071734,29.958011500071734,29.969414600054733,30.33042100002058,2,task,0.36717149999458343,[0.48833333333333334],[0.18],[1],[0],[0],[2.3671714999945834],30.330654700053856,30.336082500056364,0.00012000009883195162,30.646444999962114,31.894796899985522,[],[],[],[],[],[],,,,,190121,001,2025-01-26_17h42.36.042,Foreperiod_task,2024.2.4,89.49578962393147,2025-01-26 17h42.46.816475 -0800,
3,0,3,[0.48833333333333334],[0.18],[1],[0],[0],[2.4117716000182554],[],[],[],[],[],[],0,0,0,0,3,0,3,0,31.90188650006894,,,,,,,,,,,,31.89512610004749,31.90188650006894,0.0002455000067129731,31.90188650006894,32.10239350004122,33.89144779997878,33.89144779997878,33.89144779997878,33.90265669999644,34.30778260005172,2,task,0.4117716000182554,[0.48833333333333334],[0.18],[1],[0],[0],[2.4117716000182554],34.308043600060046,34.31373779999558,0.00012690003495663404,34.61336289998144,35.51805329998024,[],[],[],[],[],[],,,,,190121,001,2025-01-26_17h42.36.042,Foreperiod_task,2024.2.4,89.49578962393147,2025-01-26 17h42.46.816475 -0800,
4,0,4,[0.48833333333333334],[0.18],[1],[0],[0],[2.3779277000576258],[],[],[],[],[],[],0,0,0,0,4,0,4,0,35.524762699962594,,,,,,,,,,,,35.51836710004136,35.524762699962594,0.0002455000067129731,35.524762699962594,35.725467700045556,37.51362960005645,37.51362960005645,37.51362960005645,37.52610320004169,37.89730990002863,2,task,0.37792770005762577,[0.48833333333333334],[0.18],[1],[0],[0],[2.3779277000576258],37.897591300075874,37.902513800072484,0.00014020001981407404,38.20289670000784,39.17365879996214,[],[],[],[],[],[],,,,,190121,001,2025-01-26_17h42.36.042,Foreperiod_task,2024.2.4,89.49578962393147,2025-01-26 17h42.46.816475 -0800,
5,0,5,[0.48833333333333334],[0.18],[1],[0],[0],[2.3535529000218958],[],[],[],[],[],[],0,0,0,0,5,0,5,0,39.18050590006169,,,,,,,,,,,,39.174045199994,39.18050590006169,0.00023950007744133472,39.18050590006169,39.38035079999827,41.16865320003126,41.16865320003126,41.16865320003126,41.17970930004958,41.52828570001293,2,task,0.35355290002189577,[0.48833333333333334],[0.18],[1],[0],[0],[2.3535529000218958],41.528486300027,41.535589599981904,9.50999092310667e-05,41.83591909997631,42.86285440006759,[],[],[],[],[],[],,,,,190121,001,2025-01-26_17h42.36.042,Foreperiod_task,2024.2.4,89.49578962393147,2025-01-26 17h42.46.816475 -0800,
6,0,6,[0.48833333333333334],[0.18],[1],[0],[0],[2.3642258999170735],[],[],[],[],[],[],0,0,0,0,6,0,6,0,42.86961270007305,,,,,,,,,,,,42.8632087999722,42.86961270007305,0.0002677000593394041,42.86961270007305,43.069205500069074,44.85774070001207,44.85774070001207,44.85774070001207,44.868909800075926,45.228277100017294,2,task,0.36422589991707355,[0.48833333333333334],[0.18],[1],[0],[0],[2.3642258999170735],45.228462300030515,45.235076699987985,8.859997615218163e-05,45.535815600072965,46.83819030004088,[],[],[],[],[],[],,,,,190121,001,2025-01-26_17h42.36.042,Foreperiod_task,2024.2.4,89.49578962393147,2025-01-26 17h42.46.816475 -0800,
7,0,7,[0.48833333333333334],[0.18],[1],[0],[0],[2.38026489992626],[],[],[],[],[],[],0,0,0,0,7,0,7,0,46.846627500024624,,,,,,,,,,,,46.838502699974924,46.846627500024624,0.0002503000432625413,46.846627500024624,47.04644649999682,48.836177699966356,48.836177699966356,48.836177699966356,48.84686040005181,49.21971079998184,2,task,0.3802648999262601,[0.48833333333333334],[0.18],[1],[0],[0],[2.38026489992626],49.2199540999718,49.22452459996566,0.00011570006608963013,49.52484299999196,50.83861179999076,[],[],[],[],[],[],,,,,190121,001,2025-01-26_17h42.36.042,Foreperiod_task,2024.2.4,89.49578962393147,2025-01-26 17h42.46.816475 -0800,
8,0,8,[0.48833333333333334],[0.18],[1],[0],[0],[2.3580621000146493],[],[],[],[],[],[],0,0,0,0,8,0,8,0,50.84667650004849,,,,,,,,,,,,50.83887970005162,50.84667650004849,0.00019649998284876347,50.84667650004849,51.046970700030215,52.835324199986644,52.835324199986644,52.835324199986644,52.84621790004894,53.197828900069,2,task,0.35806210001464933,[0.48833333333333334],[0.18],[1],[0],[0],[2.3580621000146493],53.19808220001869,53.21295239997562,0.00012860004790127277,53.51272090000566,54.716717200004496,[],[],[],[],[],[],,,,,190121,001,2025-01-26_17h42.36.042,Foreperiod_task,2024.2.4,89.49578962393147,2025-01-26 17h42.46.816475 -0800,
9,0,9,[0.48833333333333334],[0.18],[1],[0],[0],[2.322235199972056],[],[],[],[],[],[],0,0,0,0,9,0,9,0,54.724006799981,,,,,,,,,,,,54.71700339997187,54.724006799981,0.00021009996999055147,54.724006799981,54.92444900004193,56.71297340001911,56.71297340001911,56.71297340001911,56.72431439999491,57.0400220999727,2,task,0.32223519997205585,[0.48833333333333334],[0.18],[1],[0],[0],[2.322235199972056],57.040296499966644,57.04717290005647,0.0001227000029757619,57.346909400075674,58.3378781999927,[],[],[],[],[],[],,,,,190121,001,2025-01-26_17h42.36.042,Foreperiod_task,2024.2.4,89.49578962393147,2025-01-26 17h42.46.816475 -0800,
10,0,10,[0.48833333333333334],[0.18],[1],[0],[0],[2.345451100030914],[],[],[],[],[],[],0,0,0,0,10,0,10,0,58.34607560001314,,,,,,,,,,,,58.338244699989446,58.34607560001314,0.0002696000738069415,58.34607560001314,58.546548899961635,60.33588829997461,60.33588829997461,60.33588829997461,60.34676370001398,60.6845350000076,2,task,0.34545110003091395,[0.48833333333333334],[0.18],[1],[0],[0],[2.345451100030914],60.68481560004875,60.691039100056514,0.00011330004781484604,60.99078610003926,61.98358930007089,[],[],[],[],[],[],,,,,190121,001,2025-01-26_17h42.36.042,Foreperiod_task,2024.2.4,89.49578962393147,2025-01-26 17h42.46.816475 -0800,
11,0,11,[0.48833333333333334],[0.18],[1],[0],[0],[2.344307000050321],[],[],[],[],[],[],0,0,0,0,11,0,11,0,61.990672099986114,,,,,,,,,,,,61.983924900065176,61.990672099986114,0.00025040004402399063,61.990672099986114,62.19085490005091,63.9793569999747,63.9793569999747,63.9793569999747,63.99066480004694,64.32888220006134,2,task,0.3443070000503212,[0.48833333333333334],[0.18],[1],[0],[0],[2.344307000050321],64.32915790006518,64.33529529999942,0.00012019998393952847,64.63480630004779,65.98218950000592,[],[],[],[],[],[],,,,,190121,001,2025-01-26_17h42.36.042,Foreperiod_task,2024.2.4,89.49578962393147,2025-01-26 17h42.46.816475 -0800,
12,0,12,[0.48833333333333334],[0.18],[1],[0],[0],[2.3688316999468952],[],[],[],[],[],[],0,0,0,0,12,0,12,0,65.99036539997905,,,,,,,,,,,,65.98241769999731,65.99036539997905,0.0001767999492585659,65.99036539997905,66.19078429997899,67.97958669997752,67.97958669997752,67.97958669997752,67.9908742000116,68.3519317000173,2,task,0.36883169994689524,[0.48833333333333334],[0.18],[1],[0],[0],[2.3688316999468952],68.35218599997461,68.35724170005415,0.00010810000821948051,68.65764320001472,69.76173400005791,[],[],[],[],[],[],,,,,190121,001,2025-01-26_17h42.36.042,Foreperiod_task,2024.2.4,89.49578962393147,2025-01-26 17h42.46.816475 -0800,
13,0,13,[0.48833333333333334],[0.18],[1],[0],[0],[2.5547142000868917],[],[],[],[],[],[],0,0,0,0,13,0,13,0,69.76847050001379,,,,,,,,,,,,69.76206300000194,69.76847050001379,0.0002579001011326909,69.76847050001379,69.96803660003934,71.757568800007,71.757568800007,71.757568800007,71.76855230005458,72.31749140005559,2,task,0.5547142000868917,[0.48833333333333334],[0.18],[1],[0],[0],[2.5547142000868917],72.31777650001459,72.32381610001903,0.00013890000991523266,72.63392950000707,73.8500399000477,[],[],[],[],[],[],,,,,190121,001,2025-01-26_17h42.36.042,Foreperiod_task,2024.2.4,89.49578962393147,2025-01-26 17h42.46.816475 -0800,
14,0,14,[0.48833333333333334],[0.18],[1],[0],[0],[2.4799943000543863],[],[],[],[],[],[],0,0,0,0,14,0,14,0,73.85703050007578,,,,,,,,,,,,73.85036070004571,73.85703050007578,0.00026110000908374786,73.85703050007578,74.05675460002385,75.8468268000288,75.8468268000288,75.8468268000288,75.85771680006292,76.33129240002017,2,task,0.47999430005438626,[0.48833333333333334],[0.18],[1],[0],[0],[2.4799943000543863],76.33155820006505,76.34628920000978,0.000125400023534894,76.64626880001742,77.57301839999855,[],[],[],[],[],[],,,,,190121,001,2025-01-26_17h42.36.042,Foreperiod_task,2024.2.4,89.49578962393147,2025-01-26 17h42.46.816475 -0800,
15,0,15,[0.48833333333333334],[0.18],[1],[0],[0],[2.3778809999348596],[],[],[],[],[],[],0,0,0,0,15,0,15,0,77.57943519996479,,,,,,,,,,,,77.57333559996914,77.57943519996479,0.00024960003793239594,77.57943519996479,77.77933459996711,79.568450700026,79.568450700026,79.568450700026,79.57932180003263,79.95188860001508,2,task,0.3778809999348596,[0.48833333333333334],[0.18],[1],[0],[0],[2.3778809999348596],79.95217219996266,79.95689689996652,0.0001175999641418457,80.25717340002302,81.17239700001664,[],[],[],[],[],[],,,,,190121,001,2025-01-26_17h42.36.042,Foreperiod_task,2024.2.4,89.49578962393147,2025-01-26 17h42.46.816475 -0800,
16,0,16,[0.48833333333333334],[0.18],[1],[0],[0],[4.1227352999849245],[],[],[],[],[],[],0,0,0,0,16,0,16,0,81.1794108999893,,,,,,,,,,,,81.17272300005425,81.1794108999893,0.00024390011094510555,81.1794108999893,81.3796919999877,83.16819530003704,83.16819530003704,83.16819530003704,83.18930389999878,85.29612249997444,2,task,2.1227352999849245,[0.48833333333333334],[0.18],[1],[0],[0],[4.1227352999849245],85.29634710005485,85.30134470004123,0.00012179999612271786,85.60123759997077,86.68408350006212,[],[],[],[],[],[],,,,,190121,001,2025-01-26_17h42.36.042,Foreperiod_task,2024.2.4,89.49578962393147,2025-01-26 17h42.46.816475 -0800,
17,0,17,[0.48833333333333334],[0.18],[1],[0],[0],[2.433904599980451],[],[],[],[],[],[],0,0,0,0,17,0,17,0,86.69045069999993,,,,,,,,,,,,86.68436680000741,86.69045069999993,0.0002218000590801239,86.69045069999993,86.89070009998977,88.67945809999947,88.67945809999947,88.67945809999947,88.6905804000562,89.11913790006656,2,task,0.43390459998045117,[0.48833333333333334],[0.18],[1],[0],[0],[2.433904599980451],89.11988100002054,89.13364180002827,0.0001186000881716609,89.43584369996097,90.3854316000361,[],[],[],[],[],[],,,,,190121,001,2025-01-26_17h42.36.042,Foreperiod_task,2024.2.4,89.49578962393147,2025-01-26 17h42.46.816475 -0800,
18,0,18,[0.48833333333333334],[0.18],[1],[0],[0],[3.042750300024636],[],[],[],[],[],[],0,0,0,0,18,0,18,0,90.40051930001937,,,,,,,,,,,,90.3858153000474,90.40051930001937,0.0003065000055357814,90.40051930001937,90.6012585000135,92.37906990002375,92.37906990002375,92.37906990002375,92.39029070001561,93.42936379997991,2,task,1.042750300024636,[0.48833333333333334],[0.18],[1],[0],[0],[3.042750300024636],93.42958410002757,93.43447370000649,0.00011859997175633907,93.73443960002623,94.91753470001277,[],[],[],[],[],[],,,,,190121,001,2025-01-26_17h42.36.042,Foreperiod_task,2024.2.4,89.49578962393147,2025-01-26 17h42.46.816475 -0800,
19,0,19,[0.48833333333333334],[0.18],[1],[0],[0],[2.377061599981971],[],[],[],[],[],[],0,0,0,0,19,0,19,0,94.9234143999638,,,,,,,,,,,,94.91788710001856,94.9234143999638,0.00028169993311166763,94.9234143999638,95.12509400001727,96.91278810007498,96.91278810007498,96.91278810007498,96.92411670007277,97.29604070005007,2,task,0.3770615999819711,[0.48833333333333334],[0.18],[1],[0],[0],[2.377061599981971],97.29627240006812,97.30164560000412,0.0001273999223485589,97.60163300007116,98.56128749996424,[],[],[],[],[],[],,,,,190121,001,2025-01-26_17h42.36.042,Foreperiod_task,2024.2.4,89.49578962393147,2025-01-26 17h42.46.816475 -0800,
20,0,20,[0.49],[0.013333333333333334],[1],[0],[0],[2.4093024000758305],[],[],[],[],[],[],0,0,0,0,20,0,20,0,98.56824310007505,,,,,,,,,,,,98.56159759999719,98.56824310007505,0.00021970004308968782,98.56824310007505,98.76766580005642,100.55709220003337,100.55709220003337,100.55709220003337,100.56798599998001,100.97156580002047,2,task,0.4093024000758305,[0.49],[0.013333333333333334],[1],[0],[0],[2.4093024000758305],100.97177669999655,100.97890720004216,0.00013419997412711382,101.2793190999655,102.28337670001201,[],[],[],[],[],[],,,,,190121,001,2025-01-26_17h42.36.042,Foreperiod_task,2024.2.4,89.49578962393147,2025-01-26 17h42.46.816475 -0800,
21,0,21,[0.49],[0.013333333333333334],[1],[0],[0],[2.3557410000357777],[],[],[],[],[],[],0,0,0,0,21,0,21,0,102.29010640003253,,,,,,,,,,,,102.28368320001755,102.29010640003253,0.00022839999292045832,102.29010640003253,102.49021920002997,104.27981560002081,104.27981560002081,104.27981560002081,104.29046429996379,104.64027460000943,2,task,0.3557410000357777,[0.49],[0.013333333333333334],[1],[0],[0],[2.3557410000357777],104.64049530006014,104.64561120001599,0.000112100038677454,104.94585919997189,106.03909320000093,[],[],[],[],[],[],,,,,190121,001,2025-01-26_17h42.36.042,Foreperiod_task,2024.2.4,89.49578962393147,2025-01-26 17h42.46.816475 -0800,
22,0,22,[0.49],[0.013333333333333334],[1],[0],[0],[2.43290019989945],[],[],[],[],[],[],0,0,0,0,22,0,22,0,106.04520120006055,,,,,,,,,,,,106.03934789996129,106.04520120006055,0.00017220003064721823,106.04520120006055,106.2457049000077,108.03440470003989,108.03440470003989,108.03440470003989,108.04507810005452,108.47289189998992,2,task,0.43290019989944994,[0.49],[0.013333333333333334],[1],[0],[0],[2.43290019989945],108.47310170007404,108.4786384999752,0.00011040002573281527,108.77835869998671,109.77177730004769,[],[],[],[],[],[],,,,,190121,001,2025-01-26_17h42.36.042,Foreperiod_task,2024.2.4,89.49578962393147,2025-01-26 17h42.46.816475 -0800,
23,0,23,[0.49],[0.013333333333333334],[1],[0],[0],[2.398960300022736],[],[],[],[],[],[],0,0,0,0,23,0,23,0,109.77889269997831,,,,,,,,,,,,109.77204750000965,109.77889269997831,0.00020000000949949026,109.77889269997831,109.9792313000653,111.76752600003965,111.76752600003965,111.76752600003965,111.77872229996137,112.17170569999143,2,task,0.3989603000227362,[0.49],[0.013333333333333334],[1],[0],[0],[2.398960300022736],112.17197889997624,112.17884499998763,0.0001431000418961048,112.47932689997833,113.78244600002654,[],[],[],[],[],[],,,,,190121,001,2025-01-26_17h42.36.042,Foreperiod_task,2024.2.4,89.49578962393147,2025-01-26 17h42.46.816475 -0800,
24,0,24,[0.49],[0.013333333333333334],[1],[0],[0],[2.4243141999468207],[],[],[],[],[],[],0,0,0,0,24,0,24,0,113.78981470002327,,,,,,,,,,,,113.78276360000018,113.78981470002327,0.00025800010189414024,113.78981470002327,113.99051619996317,115.77864190004766,115.77864190004766,115.77864190004766,115.78979369997978,116.2080830000341,2,task,0.42431419994682074,[0.49],[0.013333333333333334],[1],[0],[0],[2.4243141999468207],116.20843140000943,116.22254430002067,0.00016589998267591,116.52323000004981,117.53841719997581,[],[],[],[],[],[],,,,,190121,001,2025-01-26_17h42.36.042,Foreperiod_task,2024.2.4,89.49578962393147,2025-01-26 17h42.46.816475 -0800,
25,0,25,[0.49],[0.013333333333333334],[1],[0],[0],[2.556118099950254],[],[],[],[],[],[],0,0,0,0,25,0,25,0,117.54582730005495,,,,,,,,,,,,117.53869349998422,117.54582730005495,0.00020949996542185545,117.54582730005495,117.74586680007633,119.5343449000502,119.5343449000502,119.5343449000502,119.54510940006003,120.0956250000745,2,task,0.556118099950254,[0.49],[0.013333333333333334],[1],[0],[0],[2.556118099950254],120.0958840000676,120.10120170004666,0.0001373999984934926,120.40095959999599,121.75006580003537,[],[],[],[],[],[],,,,,190121,001,2025-01-26_17h42.36.042,Foreperiod_task,2024.2.4,89.49578962393147,2025-01-26 17h42.46.816475 -0800,
26,0,26,[0.49],[0.013333333333333334],[1],[0],[0],[2.333148700068705],[],[],[],[],[],[],0,0,0,0,26,0,26,0,121.75625460001174,,,,,,,,,,,,121.75033169996459,121.75625460001174,0.00019940000493079424,121.75625460001174,121.95647269999608,123.7451779000694,123.7451779000694,123.7451779000694,123.7563163000159,124.08410810003988,2,task,0.3331487000687048,[0.49],[0.013333333333333334],[1],[0],[0],[2.333148700068705],124.0843968000263,124.08977750001941,0.0001517999917268753,124.40120990003925,125.30455880006775,[],[],[],[],[],[],,,,,190121,001,2025-01-26_17h42.36.042,Foreperiod_task,2024.2.4,89.49578962393147,2025-01-26 17h42.46.816475 -0800,
27,0,27,[0.49],[0.013333333333333334],[1],[0],[0],[2.5098198000341654],[],[],[],[],[],[],0,0,0,0,27,0,27,0,125.31244140001945,,,,,,,,,,,,125.3048267000122,125.31244140001945,0.0002142000012099743,125.31244140001945,125.51191050000489,127.31260080006905,127.31260080006905,127.31260080006905,127.32334580004681,127.81525340001099,2,task,0.5098198000341654,[0.49],[0.013333333333333334],[1],[0],[0],[2.5098198000341654],127.81545580003876,127.82295699999668,9.190000128000975e-05,128.12315180001315,129.2372554000467,[],[],[],[],[],[],,,,,190121,001,2025-01-26_17h42.36.042,Foreperiod_task,2024.2.4,89.49578962393147,2025-01-26 17h42.46.816475 -0800,
28,0,28,[0.49],[0.013333333333333334],[1],[0],[0],[2.435090299928561],[],[],[],[],[],[],0,0,0,0,28,0,28,0,129.2451885000337,,,,,,,,,,,,129.2374968000222,129.2451885000337,0.00019019993487745523,129.2451885000337,129.44496820005588,131.233802700066,131.233802700066,131.233802700066,131.24557739996817,131.67357260000426,2,task,0.43509029992856085,[0.49],[0.013333333333333334],[1],[0],[0],[2.435090299928561],131.6738328000065,131.678756600013,0.00012039998546242714,131.9786089999834,133.25971640006173,[],[],[],[],[],[],,,,,190121,001,2025-01-26_17h42.36.042,Foreperiod_task,2024.2.4,89.49578962393147,2025-01-26 17h42.46.816475 -0800,
29,0,29,[0.49],[0.013333333333333334],[1],[0],[0],[2.4907367000123486],[],[],[],[],[],[],0,0,0,0,29,0,29,0,133.26719300006516,,,,,,,,,,,,133.25993339996785,133.26719300006516,0.00016629998572170734,133.26719300006516,133.46840680006426,135.25680820003618,135.25680820003618,135.25680820003618,135.26777599996421,135.75170949997846,2,task,0.4907367000123486,[0.49],[0.013333333333333334],[1],[0],[0],[2.4907367000123486],135.75201359996572,135.7677938999841,0.00014130002819001675,136.0675553000765,137.03677450004034,[],[],[],[],[],[],,,,,190121,001,2025-01-26_17h42.36.042,Foreperiod_task,2024.2.4,89.49578962393147,2025-01-26 17h42.46.816475 -0800,
30,0,30,[0.49],[0.013333333333333334],[1],[0],[0],[2.3144172000465915],[],[],[],[],[],[],0,0,0,0,30,0,30,0,137.04538000002503,,,,,,,,,,,,137.03699799999595,137.04538000002503,0.00017619994468986988,137.04538000002503,137.24523850006517,139.0343157000607,139.0343157000607,139.0343157000607,139.04547420004383,139.35243980004452,2,task,0.31441720004659146,[0.49],[0.013333333333333334],[1],[0],[0],[2.3144172000465915],139.35316190007143,139.3675527999876,0.0003431000513955951,139.67102750006597,140.89630350004882,[],[],[],[],[],[],,,,,190121,001,2025-01-26_17h42.36.042,Foreperiod_task,2024.2.4,89.49578962393147,2025-01-26 17h42.46.816475 -0800,
31,0,31,[0.49],[0.013333333333333334],[1],[0],[0],[2.453853699960746],[],[],[],[],[],[],0,0,0,0,31,0,31,0,140.91138130007312,,,,,,,,,,,,140.8966378000332,140.91138130007312,0.00026430003345012665,140.91138130007312,141.1119812000543,142.89015720004681,142.89015720004681,142.89015720004681,142.90079119999427,143.35136450000573,2,task,0.45385369996074587,[0.49],[0.013333333333333334],[1],[0],[0],[2.453853699960746],143.35164720006287,143.35627750004642,0.00011620006989687681,143.65689930005465,144.97129290003795,[],[],[],[],[],[],,,,,190121,001,2025-01-26_17h42.36.042,Foreperiod_task,2024.2.4,89.49578962393147,2025-01-26 17h42.46.816475 -0800,
32,0,32,[0.49],[0.013333333333333334],[1],[0],[0],[2.3889863999793306],[],[],[],[],[],[],0,0,0,0,32,0,32,0,144.9784397999756,,,,,,,,,,,,144.97161070001312,144.9784397999756,0.00027760001830756664,144.9784397999756,145.17870060005225,146.96767380007077,146.96767380007077,146.96767380007077,146.9783466999652,147.36142219998874,2,task,0.3889863999793306,[0.49],[0.013333333333333334],[1],[0],[0],[2.3889863999793306],147.36167000001296,147.36700650001876,0.00011899997480213642,147.6675103000598,148.86411750002299,[],[],[],[],[],[],,,,,190121,001,2025-01-26_17h42.36.042,Foreperiod_task,2024.2.4,89.49578962393147,2025-01-26 17h42.46.816475 -0800,
33,0,33,[0.49],[0.013333333333333334],[1],[0],[0],[2.4624100000364706],[],[],[],[],[],[],0,0,0,0,33,0,33,0,148.87777220003773,,,,,,,,,,,,148.86453979997896,148.87777220003773,0.0003155999584123492,148.87777220003773,149.07874170003925,150.867189600016,150.867189600016,150.867189600016,150.87802249996457,151.32772030006163,2,task,0.4624100000364706,[0.49],[0.013333333333333334],[1],[0],[0],[2.4624100000364706],151.3280007999856,151.33376359997783,0.00011979998089373112,151.63364190002903,152.82716660003643,[],[],[],[],[],[],,,,,190121,001,2025-01-26_17h42.36.042,Foreperiod_task,2024.2.4,89.49578962393147,2025-01-26 17h42.46.816475 -0800,
34,0,34,[0.49],[0.013333333333333334],[1],[0],[0],[2.55531800002791],[],[],[],[],[],[],0,0,0,0,34,0,34,0,152.83380050002597,,,,,,,,,,,,152.82743770000525,152.83380050002597,0.00021319999359548092,152.83380050002597,153.0339884000132,154.82260940002743,154.82260940002743,154.82260940002743,154.8337562000379,155.38346949999686,2,task,0.5553180000279099,[0.49],[0.013333333333333334],[1],[0],[0],[2.55531800002791],155.38370620005298,155.3893972999649,0.0001097000204026699,155.68997229996603,156.91608830005862,[],[],[],[],[],[],,,,,190121,001,2025-01-26_17h42.36.042,Foreperiod_task,2024.2.4,89.49578962393147,2025-01-26 17h42.46.816475 -0800,
35,0,35,[0.49],[0.013333333333333334],[1],[0],[0],[2.3876291000051424],[],[],[],[],[],[],0,0,0,0,35,0,35,0,156.92290880007204,,,,,,,,,,,,156.9163969999645,156.92290880007204,0.00022409996017813683,156.92290880007204,157.12273479998112,158.91146790003404,158.91146790003404,158.91146790003404,158.92290590004995,159.30482469999697,2,task,0.3876291000051424,[0.49],[0.013333333333333334],[1],[0],[0],[2.3876291000051424],159.30505840003025,159.3115766000701,0.00013489997945725918,159.61155949998647,160.70372700004373,[],[],[],[],[],[],,,,,190121,001,2025-01-26_17h42.36.042,Foreperiod_task,2024.2.4,89.49578962393147,2025-01-26 17h42.46.816475 -0800,
36,0,36,[0.49],[0.013333333333333334],[1],[0],[0],[2.4112954000011086],[],[],[],[],[],[],0,0,0,0,36,0,36,0,160.71163020003587,,,,,,,,,,,,160.70394450007007,160.71163020003587,0.00017110002227127552,160.71163020003587,160.91099440003745,162.69988440000452,162.69988440000452,162.69988440000452,162.71146899997257,163.115871099988,2,task,0.41129540000110865,[0.49],[0.013333333333333334],[1],[0],[0],[2.4112954000011086],163.1160804000683,163.12236919999123,0.00012119999155402184,163.42240999999922,164.38185180001892,[],[],[],[],[],[],,,,,190121,001,2025-01-26_17h42.36.042,Foreperiod_task,2024.2.4,89.49578962393147,2025-01-26 17h42.46.816475 -0800,
37,0,37,[0.49],[0.013333333333333334],[1],[0],[0],[2.389648500015028],[],[],[],[],[],[],0,0,0,0,37,0,37,0,164.38904679997358,,,,,,,,,,,,164.38218580000103,164.38904679997358,0.00026810006238520145,164.38904679997358,164.58884049998596,166.3778723999858,166.3778723999858,166.3778723999858,166.38936440006364,166.7727964000078,2,task,0.3896485000150278,[0.49],[0.013333333333333334],[1],[0],[0],[2.389648500015028],166.77311730000656,166.77811489999294,0.0001908999402076006,167.07850100006908,168.10297040001024,[],[],[],[],[],[],,,,,190121,001,2025-01-26_17h42.36.042,Foreperiod_task,2024.2.4,89.49578962393147,2025-01-26 17h42.46.816475 -0800,
38,0,38,[0.49],[0.013333333333333334],[1],[0],[0],[2.3664622999494895],[],[],[],[],[],[],0,0,0,0,38,0,38,0,168.1113840000471,,,,,,,,,,,,168.10318530001678,168.1113840000471,0.00016850000247359276,168.1113840000471,168.31116330006626,170.0997649000492,170.0997649000492,170.0997649000492,170.11170660005882,170.47020750003867,2,task,0.36646229994948953,[0.49],[0.013333333333333334],[1],[0],[0],[2.3664622999494895],170.47040530003142,170.47762180003338,9.390001650899649e-05,170.77864779997617,172.03843519999646,[],[],[],[],[],[],,,,,190121,001,2025-01-26_17h42.36.042,Foreperiod_task,2024.2.4,89.49578962393147,2025-01-26 17h42.46.816475 -0800,
39,0,39,[0.49],[0.013333333333333334],[1],[0],[0],[2.41005380009301],[],[],[],[],[],[],0,0,0,0,39,0,39,0,172.0447293999605,,,,,,,,,,,,172.03875910001807,172.0447293999605,0.0002625000197440386,172.0447293999605,172.24493410007562,174.0336236000294,174.0336236000294,174.0336236000294,174.0448077999754,174.44946979999077,2,task,0.41005380009301007,[0.49],[0.013333333333333334],[1],[0],[0],[2.41005380009301],174.44971720001195,174.45570880000014,0.00013189995661377907,174.7558713000035,175.9493999000406,[],[],[],[],[],[],,,,,190121,001,2025-01-26_17h42.36.042,Foreperiod_task,2024.2.4,89.49578962393147,2025-01-26 17h42.46.816475 -0800,
40,0,40,[0.5533333333333333],[0.0033333333333333335],[1],[0],[0],[2.422323300037533],[],[],[],[],[],[],0,0,0,0,40,0,40,0,175.95603220001794,,,,,,,,,,,,175.94970070000272,175.95603220001794,0.00023930007591843605,175.95603220001794,176.15624879999086,177.9453945000423,177.9453945000423,177.9453945000423,177.95547050004825,178.37299760000315,2,task,0.42232330003753304,[0.5533333333333333],[0.0033333333333333335],[1],[0],[0],[2.422323300037533],178.37327159999404,178.37816339998972,0.00014159991405904293,178.67768970003817,180.03623339999467,[],[],[],[],[],[],,,,,190121,001,2025-01-26_17h42.36.042,Foreperiod_task,2024.2.4,89.49578962393147,2025-01-26 17h42.46.816475 -0800,
41,0,41,[0.5533333333333333],[0.0033333333333333335],[1],[0],[0],[2.4242810000432655],[],[],[],[],[],[],0,0,0,0,41,0,41,0,180.0445705000311,,,,,,,,,,,,180.03647529997397,180.0445705000311,0.0001965000992640853,180.0445705000311,180.2446598999668,182.03336420003325,182.03336420003325,182.03336420003325,182.04501300002448,182.46158030000515,2,task,0.4242810000432655,[0.5533333333333333],[0.0033333333333333335],[1],[0],[0],[2.4242810000432655],182.46184450003784,182.46708670002408,0.00012670003343373537,182.7668066000333,184.02668570005335,[],[],[],[],[],[],,,,,190121,001,2025-01-26_17h42.36.042,Foreperiod_task,2024.2.4,89.49578962393147,2025-01-26 17h42.46.816475 -0800,
42,0,42,[0.5533333333333333],[0.0033333333333333335],[1],[0],[0],[2.409947899985127],[],[],[],[],[],[],0,0,0,0,42,0,42,0,184.0333827000577,,,,,,,,,,,,184.02698690001853,184.0333827000577,0.00023490004241466522,184.0333827000577,184.2333956999937,186.02176709997002,186.02176709997002,186.02176709997002,186.03289120004047,186.43778919999022,2,task,0.40994789998512715,[0.5533333333333333],[0.0033333333333333335],[1],[0],[0],[2.409947899985127],186.43805070000235,186.4449053000426,0.00012960005551576614,186.7443494000472,187.89324090001173,[],[],[],[],[],[],,,,,190121,001,2025-01-26_17h42.36.042,Foreperiod_task,2024.2.4,89.49578962393147,2025-01-26 17h42.46.816475 -0800,
43,0,43,[0.5533333333333333],[0.0033333333333333335],[1],[0],[0],[2.7437619999982417],[],[],[],[],[],[],0,0,0,0,43,0,43,0,187.900156000047,,,,,,,,,,,,187.89349699998274,187.900156000047,0.00020349991973489523,187.900156000047,188.09988930006512,189.8890258000465,189.8890258000465,189.8890258000465,189.90022780001163,190.63792090001516,2,task,0.7437619999982417,[0.5533333333333333],[0.0033333333333333335],[1],[0],[0],[2.7437619999982417],190.6381308999844,190.64391460001934,0.00010310008656233549,190.9438926000148,191.9694816999836,[],[],[],[],[],[],,,,,190121,001,2025-01-26_17h42.36.042,Foreperiod_task,2024.2.4,89.49578962393147,2025-01-26 17h42.46.816475 -0800,
44,0,44,[0.5533333333333333],[0.0033333333333333335],[1],[0],[0],[2.4683194000972435],[],[],[],[],[],[],0,0,0,0,44,0,44,0,191.97780009999406,,,,,,,,,,,,191.96974099997897,191.97780009999406,0.00021030008792877197,191.97780009999406,192.17786359996535,193.96654080005828,193.96654080005828,193.96654080005828,193.97744729998522,194.4387732000323,2,task,0.4683194000972435,[0.5533333333333333],[0.0033333333333333335],[1],[0],[0],[2.4683194000972435],194.4390361000551,194.44417170004454,0.0001327999634668231,194.75537410005927,195.76517909998074,[],[],[],[],[],[],,,,,190121,001,2025-01-26_17h42.36.042,Foreperiod_task,2024.2.4,89.49578962393147,2025-01-26 17h42.46.816475 -0800,
45,0,45,[0.5533333333333333],[0.0033333333333333335],[1],[0],[0],[2.415952100069262],[],[],[],[],[],[],0,0,0,0,45,0,45,0,195.7766884000739,,,,,,,,,,,,195.76547400001436,195.7766884000739,0.00023390003480017185,195.7766884000739,195.97730909998063,197.7663713999791,197.7663713999791,197.7663713999791,197.77780340006575,198.18204910005443,2,task,0.4159521000692621,[0.5533333333333333],[0.0033333333333333335],[1],[0],[0],[2.415952100069262],198.1822629000526,198.188491399982,0.00011750007979571819,198.48927819996607,199.50270149996504,[],[],[],[],[],[],,,,,190121,001,2025-01-26_17h42.36.042,Foreperiod_task,2024.2.4,89.49578962393147,2025-01-26 17h42.46.816475 -0800,
46,0,46,[0.5533333333333333],[0.0033333333333333335],[1],[0],[0],[2.379166299942881],[],[],[],[],[],[],0,0,0,0,46,0,46,0,199.51074950001203,,,,,,,,,,,,199.50294060003944,199.51074950001203,0.00019289995543658733,199.51074950001203,199.71116659999825,201.49995229998603,201.49995229998603,201.49995229998603,201.51093029999174,201.88285719999112,2,task,0.37916629994288087,[0.5533333333333333],[0.0033333333333333335],[1],[0],[0],[2.379166299942881],201.88313570001628,201.88867070002016,0.00013109995052218437,202.18895159999374,203.0943769000005,[],[],[],[],[],[],,,,,190121,001,2025-01-26_17h42.36.042,Foreperiod_task,2024.2.4,89.49578962393147,2025-01-26 17h42.46.816475 -0800,
47,0,47,[0.5533333333333333],[0.0033333333333333335],[1],[0],[0],[2.409022699925117],[],[],[],[],[],[],0,0,0,0,47,0,47,0,203.10004489996936,,,,,,,,,,,,203.0946818999946,203.10004489996936,0.0002443999983370304,203.10004489996936,203.29980080004316,205.08873259997927,205.08873259997927,205.08873259997927,205.09973829996306,205.5045708999969,2,task,0.4090226999251172,[0.5533333333333333],[0.0033333333333333335],[1],[0],[0],[2.409022699925117],205.50477230001707,205.51098959997762,9.640003554522991e-05,205.81109169998672,207.14835350005887,[],[],[],[],[],[],,,,,190121,001,2025-01-26_17h42.36.042,Foreperiod_task,2024.2.4,89.49578962393147,2025-01-26 17h42.46.816475 -0800,
48,0,48,[0.5533333333333333],[0.0033333333333333335],[1],[0],[0],[2.45531089999713],[],[],[],[],[],[],0,0,0,0,48,0,48,0,207.15531920001376,,,,,,,,,,,,207.1486114000436,207.15531920001376,0.00022950000129640102,207.15531920001376,207.35459370003082,209.14383169997018,209.14383169997018,209.14383169997018,209.15504440001678,209.6046645999886,2,task,0.45531089999713004,[0.5533333333333333],[0.0033333333333333335],[1],[0],[0],[2.45531089999713],209.60493120003957,209.61048540007323,0.00011879997327923775,209.9104706000071,211.1924201999791,[],[],[],[],[],[],,,,,190121,001,2025-01-26_17h42.36.042,Foreperiod_task,2024.2.4,89.49578962393147,2025-01-26 17h42.46.816475 -0800,
49,0,49,[0.5533333333333333],[0.0033333333333333335],[1],[0],[0],[2.633445900049992],[],[],[],[],[],[],0,0,0,0,49,0,49,0,211.1997970000375,,,,,,,,,,,,211.19266100006644,211.1997970000375,0.0001789000816643238,211.1997970000375,211.3998380000703,213.1892154000234,213.1892154000234,213.1892154000234,213.2006640000036,213.8269148999825,2,task,0.6334459000499919,[0.5533333333333333],[0.0033333333333333335],[1],[0],[0],[2.633445900049992],213.82718520006165,213.83311959996354,0.00013430009130388498,214.13312110002153,215.49128780001774,[],[],[],[],[],[],,,,,190121,001,2025-01-26_17h42.36.042,Foreperiod_task,2024.2.4,89.49578962393147,2025-01-26 17h42.46.816475 -0800,
50,0,50,[0.5533333333333333],[0.0033333333333333335],[1],[0],[0],[2.4018850999418646],[],[],[],[],[],[],0,0,0,0,50,0,50,0,215.49960950005334,,,,,,,,,,,,215.49154079996515,215.49960950005334,0.00021470000501722097,215.49960950005334,215.7002291000681,217.4889722999651,217.4889722999651,217.4889722999651,217.49999170005322,217.89447830000427,2,task,0.4018850999418646,[0.5533333333333333],[0.0033333333333333335],[1],[0],[0],[2.4018850999418646],217.89474180003162,217.89998350001406,0.00013289996422827244,218.1996622000588,219.11448340001516,[],[],[],[],[],[],,,,,190121,001,2025-01-26_17h42.36.042,Foreperiod_task,2024.2.4,89.49578962393147,2025-01-26 17h42.46.816475 -0800,
51,0,51,[0.5533333333333333],[0.0033333333333333335],[1],[0],[0],[2.378948700032197],[],[],[],[],[],[],0,0,0,0,51,0,51,0,219.12165069999173,,,,,,,,,,,,219.11474710004404,219.12165069999173,0.00022250006441026926,219.12165069999173,219.3222861000104,221.11072570004035,221.11072570004035,221.11072570004035,221.12264590000268,221.49452970002312,2,task,0.37894870003219694,[0.5533333333333333],[0.0033333333333333335],[1],[0],[0],[2.378948700032197],221.49491880007554,221.50001800002065,0.00015480001457035542,221.79941970005166,222.97015040006954,[],[],[],[],[],[],,,,,190121,001,2025-01-26_17h42.36.042,Foreperiod_task,2024.2.4,89.49578962393147,2025-01-26 17h42.46.816475 -0800,
52,0,52,[0.5533333333333333],[0.0033333333333333335],[1],[0],[0],[2.387150299968198],[],[],[],[],[],[],0,0,0,0,52,0,52,0,222.97706239996478,,,,,,,,,,,,222.97050399996806,222.97706239996478,0.00028229993768036366,222.97706239996478,223.1771502000047,224.96690590004437,224.96690590004437,224.96690590004437,224.9775785000529,225.3584691999713,2,task,0.38715029996819794,[0.5533333333333333],[0.0033333333333333335],[1],[0],[0],[2.387150299968198],225.35868479998317,225.366208499996,0.00010740000288933516,225.66691330005415,226.669344700058,[],[],[],[],[],[],,,,,190121,001,2025-01-26_17h42.36.042,Foreperiod_task,2024.2.4,89.49578962393147,2025-01-26 17h42.46.816475 -0800,
53,0,53,[0.5533333333333333],[0.0033333333333333335],[1],[0],[0],[2.412826900021173],[],[],[],[],[],[],0,0,0,0,53,0,53,0,226.67735310003627,,,,,,,,,,,,226.66966270003468,226.67735310003627,0.0002544999588280916,226.67735310003627,226.87707180005964,228.66634080000222,228.66634080000222,228.66634080000222,228.67787969997153,229.08354670007247,2,task,0.41282690002117306,[0.5533333333333333],[0.0033333333333333335],[1],[0],[0],[2.412826900021173],229.08380480005872,229.08824549999554,0.00012560002505779266,229.3922722999705,230.52691720006987,[],[],[],[],[],[],,,,,190121,001,2025-01-26_17h42.36.042,Foreperiod_task,2024.2.4,89.49578962393147,2025-01-26 17h42.46.816475 -0800,
54,0,54,[0.5533333333333333],[0.0033333333333333335],[1],[0],[0],[2.43205029994715],[],[],[],[],[],[],0,0,0,0,54,0,54,0,230.53274910000619,,,,,,,,,,,,230.52722819999326,230.53274910000619,0.00025809998624026775,230.53274910000619,230.73273010004777,232.52156180003658,232.52156180003658,232.52156180003658,232.5329298999859,232.96008980006445,2,task,0.43205029994715005,[0.5533333333333333],[0.0033333333333333335],[1],[0],[0],[2.43205029994715],232.9604558000574,232.966117199976,0.00016840000171214342,233.26627630006988,234.42434590007178,[],[],[],[],[],[],,,,,190121,001,2025-01-26_17h42.36.042,Foreperiod_task,2024.2.4,89.49578962393147,2025-01-26 17h42.46.816475 -0800,
55,0,55,[0.5533333333333333],[0.0033333333333333335],[1],[0],[0],[2.4780766000039876],[],[],[],[],[],[],0,0,0,0,55,0,55,0,234.43222439999226,,,,,,,,,,,,234.4246315000346,234.43222439999226,0.0002410999732092023,234.43222439999226,234.6328663000604,236.42168090003543,236.42168090003543,236.42168090003543,236.43248099996708,236.90358320006635,2,task,0.47807660000398755,[0.5533333333333333],[0.0033333333333333335],[1],[0],[0],[2.4780766000039876],236.90383750002366,236.9108566000359,0.00012129999231547117,237.21029850002378,238.20396279997658,[],[],[],[],[],[],,,,,190121,001,2025-01-26_17h42.36.042,Foreperiod_task,2024.2.4,89.49578962393147,2025-01-26 17h42.46.816475 -0800,
56,0,56,[0.5433333333333333],[0.016666666666666666],[1],[0],[0],[0.4336436000885442],[],[],[],[],[],[],0,0,0,0,56,0,56,0,238.21063280000817,,,,,,,,,,,,238.20423679996748,238.21063280000817,0.0002234000712633133,238.21063280000817,238.41033310000785,,,,,238.63877920003142,2,task,-1.5663563999114558,[0.5433333333333333],[0.016666666666666666],[1],[0],[0],[0.4336436000885442],238.63902930007316,238.6649330999935,0.00012280000373721123,238.9664264000021,240.18185930000618,[],[],[],[],[],[],238.6649330999935,,,,190121,001,2025-01-26_17h42.36.042,Foreperiod_task,2024.2.4,89.49578962393147,2025-01-26 17h42.46.816475 -0800,
57,0,57,[0.5433333333333333],[0.016666666666666666],[1],[0],[0],[2.507958000060171],[],[],[],[],[],[],0,0,0,0,57,0,57,0,240.18845799996052,,,,,,,,,,,,240.1821753999684,240.18845799996052,0.00025749998167157173,240.18845799996052,240.3883107000729,242.17729700007476,242.17729700007476,242.17729700007476,242.18818579998333,242.69093430007342,2,task,0.5079580000601709,[0.5433333333333333],[0.016666666666666666],[1],[0],[0],[2.507958000060171],242.69120380003005,242.6996128000319,0.00011609995272010565,242.9989325000206,244.28142070001923,[],[],[],[],[],[],,,,,190121,001,2025-01-26_17h42.36.042,Foreperiod_task,2024.2.4,89.49578962393147,2025-01-26 17h42.46.816475 -0800,
58,0,58,[0.5433333333333333],[0.016666666666666666],[1],[0],[0],[2.509561500046402],[],[],[],[],[],[],0,0,0,0,58,0,58,0,244.29087050003,,,,,,,,,,,,244.28171300003305,244.29087050003,0.00023210002109408379,244.29087050003,244.4882052000612,246.2771999000106,246.2771999000106,246.2771999000106,246.28812519996427,246.79189069999848,2,task,0.5095615000464022,[0.5433333333333333],[0.016666666666666666],[1],[0],[0],[2.509561500046402],246.79211120004766,246.79892219998874,0.00010980002116411924,247.0988811000716,248.15915660001338,[],[],[],[],[],[],,,,,190121,001,2025-01-26_17h42.36.042,Foreperiod_task,2024.2.4,89.49578962393147,2025-01-26 17h42.46.816475 -0800,
59,0,59,[0.5433333333333333],[0.016666666666666666],[1],[0],[0],[3.0437391999876127],[],[],[],[],[],[],0,0,0,0,59,0,59,0,248.1657766000135,,,,,,,,,,,,248.1594241000712,248.1657766000135,0.00021550001110881567,248.1657766000135,248.36962220002897,250.15483879996464,250.15483879996464,250.15483879996464,250.1662107000593,251.20407340000384,2,task,1.0437391999876127,[0.5433333333333333],[0.016666666666666666],[1],[0],[0],[3.0437391999876127],251.20431940001436,251.21068620006554,0.00012260000221431255,251.51003570004832,252.89215710002463,[],[],[],[],[],[],,,,,190121,001,2025-01-26_17h42.36.042,Foreperiod_task,2024.2.4,89.49578962393147,2025-01-26 17h42.46.816475 -0800,
60,0,60,[0.5433333333333333],[0.016666666666666666],[1],[0],[0],[2.509852399933152],[],[],[],[],[],[],0,0,0,0,60,0,60,0,252.89899989997502,,,,,,,,,,,,252.89246450003702,252.89899989997502,0.00026320002507418394,252.89899989997502,253.09903230005875,254.88764019997325,254.88764019997325,254.88764019997325,254.8990132000763,255.40301300003193,2,task,0.5098523999331519,[0.5433333333333333],[0.016666666666666666],[1],[0],[0],[2.509852399933152],255.40325089998078,255.4098044000566,0.00011689995881170034,255.71030420006718,256.9143038999755,[],[],[],[],[],[],,,,,190121,001,2025-01-26_17h42.36.042,Foreperiod_task,2024.2.4,89.49578962393147,2025-01-26 17h42.46.816475 -0800,
61,0,61,[0.5433333333333333],[0.016666666666666666],[1],[0],[0],[2.9453385999659076],[],[],[],[],[],[],0,0,0,0,61,0,61,0,256.9213968999684,,,,,,,,,,,,256.91467319999356,256.9213968999684,0.0002638999139890075,256.9213968999684,257.1211725000758,258.9107377000619,258.9107377000619,258.9107377000619,258.92190950002987,259.8607856000308,2,task,0.9453385999659076,[0.5433333333333333],[0.016666666666666666],[1],[0],[0],[2.9453385999659076],259.86104310001247,259.865537900012,0.0001268000341951847,260.1658555000322,261.4024707999779,[],[],[],[],[],[],,,,,190121,001,2025-01-26_17h42.36.042,Foreperiod_task,2024.2.4,89.49578962393147,2025-01-26 17h42.46.816475 -0800,
62,0,62,[0.5433333333333333],[0.016666666666666666],[1],[0],[0],[2.5230633999453858],[],[],[],[],[],[],0,0,0,0,62,0,62,0,261.4100064999657,,,,,,,,,,,,261.40273249999154,261.4100064999657,0.00021550001110881567,261.4100064999657,261.6099226999795,263.3989159000339,263.3989159000339,263.3989159000339,263.41051940002944,263.9265786999604,2,task,0.5230633999453858,[0.5433333333333333],[0.016666666666666666],[1],[0],[0],[2.5230633999453858],263.9268682000693,263.93248159997165,0.00013049994595348835,264.23208590003196,265.4589780999813,[],[],[],[],[],[],,,,,190121,001,2025-01-26_17h42.36.042,Foreperiod_task,2024.2.4,89.49578962393147,2025-01-26 17h42.46.816475 -0800,
63,0,63,[0.5433333333333333],[0.015],[1],[0],[0],[2.9423532999353483],[],[],[],[],[],[],0,0,0,0,63,0,63,0,265.46550729998853,,,,,,,,,,,,265.459389799973,265.46550729998853,0.0002753000007942319,265.46550729998853,265.6655944000231,267.4544557000045,267.4544557000045,267.4544557000045,267.4658924000105,268.40235140000004,2,task,0.9423532999353483,[0.5433333333333333],[0.015],[1],[0],[0],[2.9423532999353483],268.402551200008,268.40970780001953,0.000129799940623343,268.71006680000573,270.0923803000478,[],[],[],[],[],[],,,,,190121,001,2025-01-26_17h42.36.042,Foreperiod_task,2024.2.4,89.49578962393147,2025-01-26 17h42.46.816475 -0800,
64,0,64,[0.5433333333333333],[0.015],[1],[0],[0],[2.4435383999953046],[],[],[],[],[],[],0,0,0,0,64,0,64,0,270.09859740000684,,,,,,,,,,,,270.0926554000471,270.09859740000684,0.0002256000880151987,270.09859740000684,270.2986777999904,272.0875413999893,272.0875413999893,272.0875413999893,272.09882710000966,272.5370860999683,2,task,0.44353839999530464,[0.5433333333333333],[0.015],[1],[0],[0],[2.4435383999953046],272.53734829998575,272.5435370999621,0.00013990001752972603,272.84337470005266,274.1481032000156,[],[],[],[],[],[],,,,,190121,001,2025-01-26_17h42.36.042,Foreperiod_task,2024.2.4,89.49578962393147,2025-01-26 17h42.46.816475 -0800,
65,0,65,[0.5433333333333333],[0.015],[1],[0],[0],[2.597632999997586],[],[],[],[],[],[],0,0,0,0,65,0,65,0,274.1544769000029,,,,,,,,,,,,274.1483848000644,274.1544769000029,0.0002239999594166875,274.1544769000029,274.3544734000461,276.1431846000487,276.1431846000487,276.1431846000487,276.1545562000247,276.74674169998616,2,task,0.597632999997586,[0.5433333333333333],[0.015],[1],[0],[0],[2.597632999997586],276.7469447000185,276.75383940001484,9.609991684556007e-05,277.0547036000062,278.24710549996234,[],[],[],[],[],[],,,,,190121,001,2025-01-26_17h42.36.042,Foreperiod_task,2024.2.4,89.49578962393147,2025-01-26 17h42.46.816475 -0800,
66,0,66,[0.5433333333333333],[0.015],[1],[0],[0],[2.63396229990758],[],[],[],[],[],[],0,0,0,0,66,0,66,0,278.25401560007595,,,,,,,,,,,,278.24738079996314,278.25401560007595,0.00021159998141229153,278.25401560007595,278.45421440002974,280.2430552999722,280.2430552999722,280.2430552999722,280.2544113000622,280.8820097000571,2,task,0.63396229990758,[0.5433333333333333],[0.015],[1],[0],[0],[2.63396229990758],280.8822347000241,280.88715870003216,0.00012179999612271786,281.18748930003494,282.1046051000012,[],[],[],[],[],[],,,,,190121,001,2025-01-26_17h42.36.042,Foreperiod_task,2024.2.4,89.49578962393147,2025-01-26 17h42.46.816475 -0800,
67,0,67,[0.5433333333333333],[0.015],[1],[0],[0],[2.3515054000308737],[],[],[],[],[],[],0,0,0,0,67,0,67,0,282.10922980005853,,,,,,,,,,,,282.10502730007283,282.10922980005853,0.00034499994944781065,282.10922980005853,282.30937859998085,284.0990865000058,284.0990865000058,284.0990865000058,284.10995339998044,284.45732579997275,2,task,0.3515054000308737,[0.5433333333333333],[0.015],[1],[0],[0],[2.3515054000308737],284.4575456000166,284.464855200029,9.480002336204052e-05,284.76558810006827,286.08085669996217,[],[],[],[],[],[],,,,,190121,001,2025-01-26_17h42.36.042,Foreperiod_task,2024.2.4,89.49578962393147,2025-01-26 17h42.46.816475 -0800,
68,0,68,[0.5433333333333333],[0.015],[1],[0],[0],[2.37553309998475],[],[],[],[],[],[],0,0,0,0,68,0,68,0,286.0874712000368,,,,,,,,,,,,286.08119910000823,286.0874712000368,0.000269399955868721,286.0874712000368,286.28747089998797,288.07632049999665,288.07632049999665,288.07632049999665,288.0874720000429,288.4573053000495,2,task,0.37553309998475015,[0.5433333333333333],[0.015],[1],[0],[0],[2.37553309998475],288.4575034000445,288.46512409998104,0.00010980002116411924,288.7654534999747,289.92475500004366,[],[],[],[],[],[],,,,,190121,001,2025-01-26_17h42.36.042,Foreperiod_task,2024.2.4,89.49578962393147,2025-01-26 17h42.46.816475 -0800,
69,0,69,[0.5433333333333333],[0.015],[1],[0],[0],[2.708442599978298],[],[],[],[],[],[],0,0,0,0,69,0,69,0,289.9315089000156,,,,,,,,,,,,289.9250560000073,289.9315089000156,0.0002570999786257744,289.9315089000156,290.1317784000421,291.9208729000529,291.9208729000529,291.9208729000529,291.93198800005484,292.6341623000335,2,task,0.708442599978298,[0.5433333333333333],[0.015],[1],[0],[0],[2.708442599978298],292.634362300043,292.64288669999223,9.539991151541471e-05,292.94319260003977,293.99127360002603,[],[],[],[],[],[],,,,,190121,001,2025-01-26_17h42.36.042,Foreperiod_task,2024.2.4,89.49578962393147,2025-01-26 17h42.46.816475 -0800,
70,0,70,[0.5433333333333333],[0.015],[1],[0],[0],[2.410969299962744],[],[],[],[],[],[],0,0,0,0,70,0,70,0,293.9985141999787,,,,,,,,,,,,293.9915687000612,293.9985141999787,0.00023690005764365196,293.9985141999787,294.1986845000647,295.9871965000639,295.9871965000639,295.9871965000639,295.9980613000225,296.40311720001046,2,task,0.4109692999627441,[0.5433333333333333],[0.015],[1],[0],[0],[2.410969299962744],296.4033194000367,296.40918039996177,0.00018319999799132347,296.70965880004223,298.0802648999961,[],[],[],[],[],[],,,,,190121,001,2025-01-26_17h42.36.042,Foreperiod_task,2024.2.4,89.49578962393147,2025-01-26 17h42.46.816475 -0800,
71,0,71,[0.5433333333333333],[0.015],[1],[0],[0],[2.566409199964255],[],[],[],[],[],[],0,0,0,0,71,0,71,0,298.08713220001664,,,,,,,,,,,,298.0805718000047,298.08713220001664,0.0002682999474927783,298.08713220001664,298.28698610002175,300.07624500000384,300.07624500000384,300.07624500000384,300.0872781999642,300.6479618999874,2,task,0.5664091999642551,[0.5433333333333333],[0.015],[1],[0],[0],[2.566409199964255],300.64821820007637,300.65392910002265,0.0001230000052601099,300.9539952999912,301.88115619996097,[],[],[],[],[],[],,,,,190121,001,2025-01-26_17h42.36.042,Foreperiod_task,2024.2.4,89.49578962393147,2025-01-26 17h42.46.816475 -0800,
72,0,72,[0.5433333333333333],[0.015],[1],[0],[0],[2.3538991000968963],[],[],[],[],[],[],0,0,0,0,72,0,72,0,301.888732100022,,,,,,,,,,,,301.88154590001795,301.888732100022,0.00032570003531873226,301.888732100022,302.08755830000155,303.8757723000599,303.8757723000599,303.8757723000599,303.887053500046,304.23610290000215,2,task,0.3538991000968963,[0.5433333333333333],[0.015],[1],[0],[0],[2.3538991000968963],304.2363436999731,304.2421448000241,0.0001148999435827136,304.54253009997774,305.55780269997194,[],[],[],[],[],[],,,,,190121,001,2025-01-26_17h42.36.042,Foreperiod_task,2024.2.4,89.49578962393147,2025-01-26 17h42.46.816475 -0800,
73,0,73,[0.5433333333333333],[0.015],[1],[0],[0],[2.5662467000074685],[],[],[],[],[],[],0,0,0,0,73,0,73,0,305.5649232000578,,,,,,,,,,,,305.5580880000489,305.5649232000578,0.0002266999799758196,305.5649232000578,305.76474470004905,307.55363490001764,307.55363490001764,307.55363490001764,307.5652436000528,308.12507149996236,2,task,0.5662467000074685,[0.5433333333333333],[0.015],[1],[0],[0],[2.5662467000074685],308.125337400008,308.13166930002626,0.00013200007379055023,308.43134140002076,309.42496249999385,[],[],[],[],[],[],,,,,190121,001,2025-01-26_17h42.36.042,Foreperiod_task,2024.2.4,89.49578962393147,2025-01-26 17h42.46.816475 -0800,
74,0,74,[0.5433333333333333],[0.015],[1],[0],[0],[2.432799099944532],[],[],[],[],[],[],0,0,0,0,74,0,74,0,309.43173489999026,,,,,,,,,,,,309.4252878000261,309.43173489999026,0.0002541999565437436,309.43173489999026,309.64294819999486,311.42010360001586,311.42010360001586,311.42010360001586,311.4314636000199,311.8587302999804,2,task,0.4327990999445319,[0.5433333333333333],[0.015],[1],[0],[0],[2.432799099944532],311.85894850001205,311.86454340000637,0.00011559994891285896,312.1647178999847,313.0572919000406,[],[],[],[],[],[],,,,,190121,001,2025-01-26_17h42.36.042,Foreperiod_task,2024.2.4,89.49578962393147,2025-01-26 17h42.46.816475 -0800,
75,0,75,[0.5433333333333333],[0.015],[1],[0],[0],[2.589578300016001],[],[],[],[],[],[],0,0,0,0,75,0,75,0,313.0644670999609,,,,,,,,,,,,313.05758999998216,313.0644670999609,0.00022559997159987688,313.0644670999609,313.2645873000147,315.05369880003855,315.05369880003855,315.05369880003855,315.0645346000092,315.6478901000228,2,task,0.5895783000160009,[0.5433333333333333],[0.015],[1],[0],[0],[2.589578300016001],315.64813390001655,315.65332240005955,0.00011369993444532156,315.9535635999637,317.0914258999983,[],[],[],[],[],[],,,,,190121,001,2025-01-26_17h42.36.042,Foreperiod_task,2024.2.4,89.49578962393147,2025-01-26 17h42.46.816475 -0800,
76,0,76,[0.5433333333333333],[0.015],[1],[0],[0],[2.520371900056489],[],[],[],[],[],[],0,0,0,0,76,0,76,0,317.09808769996744,,,,,,,,,,,,317.09176730003674,317.09808769996744,0.00026210001669824123,317.09808769996744,317.29841150005814,319.0869736999739,319.0869736999739,319.0869736999739,319.098121899995,319.6127772000618,2,task,0.5203719000564888,[0.5433333333333333],[0.015],[1],[0],[0],[2.520371900056489],319.6129850000143,319.6201734000351,0.00011190003715455532,319.9202269000234,321.3023512000218,[],[],[],[],[],[],,,,,190121,001,2025-01-26_17h42.36.042,Foreperiod_task,2024.2.4,89.49578962393147,2025-01-26 17h42.46.816475 -0800,
77,0,77,[0.5433333333333333],[0.015],[1],[0],[0],[2.6429241000441834],[],[],[],[],[],[],0,0,0,0,77,0,77,0,321.30947410000954,,,,,,,,,,,,321.30267140001524,321.30947410000954,0.0002581001026555896,321.30947410000954,321.50915539998095,323.2978532999987,323.2978532999987,323.2978532999987,323.3090405999683,323.9463109000353,2,task,0.6429241000441834,[0.5433333333333333],[0.015],[1],[0],[0],[2.6429241000441834],323.9465357000008,323.9532968000276,0.00011229992378503084,324.2534149000421,325.2240154000465,[],[],[],[],[],[],,,,,190121,001,2025-01-26_17h42.36.042,Foreperiod_task,2024.2.4,89.49578962393147,2025-01-26 17h42.46.816475 -0800,
78,0,78,[0.5433333333333333],[0.015],[1],[0],[0],[2.544272999977693],[],[],[],[],[],[],0,0,0,0,78,0,78,0,325.23120060004294,,,,,,,,,,,,325.22432340006344,325.23120060004294,0.00025669997557997704,325.23120060004294,325.43124649999663,327.2201308000367,327.2201308000367,327.2201308000367,327.2312076999806,327.76943570002913,2,task,0.544272999977693,[0.5433333333333333],[0.015],[1],[0],[0],[2.544272999977693],327.7696710000746,327.77577090007253,0.00011460005771368742,328.07597999996506,329.09281479998026,[],[],[],[],[],[],,,,,190121,001,2025-01-26_17h42.36.042,Foreperiod_task,2024.2.4,89.49578962393147,2025-01-26 17h42.46.816475 -0800,
79,0,79,[0.5433333333333333],[0.015],[1],[0],[0],[2.4534949000226334],[],[],[],[],[],[],0,0,0,0,79,0,79,0,329.09794919996057,,,,,,,,,,,,329.09319220006,329.09794919996057,0.0002984000602737069,329.09794919996057,329.2976581000257,331.09845709998626,331.09845709998626,331.09845709998626,331.10894750000443,331.547339700046,2,task,0.4534949000226334,[0.5433333333333333],[0.015],[1],[0],[0],[2.4534949000226334],331.54755330004264,331.5527949000243,0.00011929997708648443,331.85321770003065,333.1465868999949,[],[],[],[],[],[],,,,,190121,001,2025-01-26_17h42.36.042,Foreperiod_task,2024.2.4,89.49578962393147,2025-01-26 17h42.46.816475 -0800,
80,0,80,[0.5433333333333333],[0.015],[1],[0],[0],[2.7767515999730676],[],[],[],[],[],[],0,0,0,0,80,0,80,0,333.1532077000011,,,,,,,,,,,,333.14696939999703,333.1532077000011,0.00029640004504472017,333.1532077000011,333.35338280000724,335.1423297000583,335.1423297000583,335.1423297000583,335.153310899972,335.9243688000133,2,task,0.7767515999730676,[0.5433333333333333],[0.015],[1],[0],[0],[2.7767515999730676],335.92459000006784,335.93073550006375,0.00011910009197890759,336.2311671000207,337.57869200001005,[],[],[],[],[],[],,,,,190121,001,2025-01-26_17h42.36.042,Foreperiod_task,2024.2.4,89.49578962393147,2025-01-26 17h42.46.816475 -0800,
81,0,81,[0.5433333333333333],[0.015],[1],[0],[0],[2.5446767000248656],[],[],[],[],[],[],0,0,0,0,81,0,81,0,337.58645740000065,,,,,,,,,,,,337.57902730000205,337.58645740000065,0.0002728999825194478,337.58645740000065,337.78681590000633,339.57614280004054,339.57614280004054,339.57614280004054,339.58663540007547,340.1243386999704,2,task,0.5446767000248656,[0.5433333333333333],[0.015],[1],[0],[0],[2.5446767000248656],340.1245363999624,340.1307124000741,0.00012829992920160294,340.4310404000571,341.54638850002084,[],[],[],[],[],[],,,,,190121,001,2025-01-26_17h42.36.042,Foreperiod_task,2024.2.4,89.49578962393147,2025-01-26 17h42.46.816475 -0800,
82,0,82,[0.5433333333333333],[0.015],[1],[0],[0],[2.6442914999788627],[],[],[],[],[],[],0,0,0,0,82,0,82,0,341.5534611999756,,,,,,,,,,,,341.546727500041,341.5534611999756,0.00027740001678466797,341.5534611999756,341.75520959997084,343.54196479998063,343.54196479998063,343.54196479998063,343.55299480003305,344.1916528000729,2,task,0.6442914999788627,[0.5433333333333333],[0.015],[1],[0],[0],[2.6442914999788627],344.191913299961,344.1974840000039,0.00012689991854131222,344.49767369998153,345.6691442000447,[],[],[],[],[],[],,,,,190121,001,2025-01-26_17h42.36.042,Foreperiod_task,2024.2.4,89.49578962393147,2025-01-26 17h42.46.816475 -0800,
83,0,83,[0.5433333333333333],[0.015],[1],[0],[0],[2.5095534999854863],[],[],[],[],[],[],0,0,0,0,83,0,83,0,345.6813526999904,,,,,,,,,,,,345.66943590005394,345.6813526999904,0.0002324999077245593,345.6813526999904,345.8752908000024,347.6644204000477,347.6644204000477,347.6644204000477,347.67557570000645,348.17975460004527,2,task,0.5095534999854863,[0.5433333333333333],[0.015],[1],[0],[0],[2.5095534999854863],348.1800222999882,348.18641429999843,0.00012009998317807913,348.4865456999978,349.5554370000027,[],[],[],[],[],[],,,,,190121,001,2025-01-26_17h42.36.042,Foreperiod_task,2024.2.4,89.49578962393147,2025-01-26 17h42.46.816475 -0800,
84,0,84,[0.5433333333333333],[0.015],[1],[0],[0],[2.7898291000165045],[],[],[],[],[],[],0,0,0,0,84,0,84,0,349.563826699974,,,,,,,,,,,,349.5557439000113,349.563826699974,0.0002452000044286251,349.563826699974,349.76473459997214,351.5527049000375,351.5527049000375,351.5527049000375,351.56409680005163,352.3462636000477,2,task,0.7898291000165045,[0.5433333333333333],[0.015],[1],[0],[0],[2.7898291000165045],352.34645620000083,352.3529255000176,0.00010429997928440571,352.6529223000398,353.74746850004885,[],[],[],[],[],[],,,,,190121,001,2025-01-26_17h42.36.042,Foreperiod_task,2024.2.4,89.49578962393147,2025-01-26 17h42.46.816475 -0800,
85,0,85,[0.5433333333333333],[0.015],[1],[0],[0],[2.852904499974102],[],[],[],[],[],[],0,0,0,0,85,0,85,0,353.7530973000685,,,,,,,,,,,,353.7478536000708,353.7530973000685,0.00030690000858157873,353.7530973000685,353.953754200018,355.74246189999394,355.74246189999394,355.74246189999394,355.7529039999936,356.6017019000137,2,task,0.8529044999741018,[0.5433333333333333],[0.015],[1],[0],[0],[2.852904499974102],356.60198899998795,356.608650600072,0.00014159991405904293,356.9090589999687,358.00285829999484,[],[],[],[],[],[],,,,,190121,001,2025-01-26_17h42.36.042,Foreperiod_task,2024.2.4,89.49578962393147,2025-01-26 17h42.46.816475 -0800,
86,0,86,[0.5433333333333333],[0.015],[1],[0],[0],[2.609701400040649],[],[],[],[],[],[],0,0,0,0,86,0,86,0,358.00873860006686,,,,,,,,,,,,358.0032360999612,358.00873860006686,0.00030610000248998404,358.00873860006686,358.20866550004575,359.9973200999666,359.9973200999666,359.9973200999666,360.00900820002425,360.6139490000205,2,task,0.6097014000406489,[0.5433333333333333],[0.015],[1],[0],[0],[2.609701400040649],360.6141959000379,360.61981469998136,0.00012039998546242714,360.9197759999661,362.08995409996714,[],[],[],[],[],[],,,,,190121,001,2025-01-26_17h42.36.042,Foreperiod_task,2024.2.4,89.49578962393147,2025-01-26 17h42.46.816475 -0800,
87,0,87,[0.5433333333333333],[0.015],[1],[0],[0],[2.543375900015235],[],[],[],[],[],[],0,0,0,0,87,0,87,0,362.0969980000518,,,,,,,,,,,,362.09026540000923,362.0969980000518,0.00026220001745969057,362.0969980000518,362.29721510002855,364.086183300009,364.086183300009,364.086183300009,364.097478199983,364.6343023000518,2,task,0.543375900015235,[0.5433333333333333],[0.015],[1],[0],[0],[2.543375900015235],364.63451460003853,364.64150140003767,0.00011460005771368742,364.9417621999746,366.1570011000149,[],[],[],[],[],[],,,,,190121,001,2025-01-26_17h42.36.042,Foreperiod_task,2024.2.4,89.49578962393147,2025-01-26 17h42.46.816475 -0800,
88,0,88,[0.5433333333333333],[0.015],[1],[0],[0],[2.5216318999882787],[],[],[],[],[],[],0,0,0,0,88,0,88,0,366.1643358999863,,,,,,,,,,,,366.1573388000252,366.1643358999863,0.00029710005037486553,366.1643358999863,366.36403970001265,368.15284140000585,368.15284140000585,368.15284140000585,368.16393529996276,368.67965870001353,2,task,0.5216318999882787,[0.5433333333333333],[0.015],[1],[0],[0],[2.5216318999882787],368.6798945000628,368.68587869999465,0.00013310008216649294,368.9861817000201,370.1589638000587,[],[],[],[],[],[],,,,,190121,001,2025-01-26_17h42.36.042,Foreperiod_task,2024.2.4,89.49578962393147,2025-01-26 17h42.46.816475 -0800,
89,0,89,[0.5433333333333333],[0.015],[1],[0],[0],[2.431847099913284],[],[],[],[],[],[],0,0,0,0,89,0,89,0,370.1740538000595,,,,,,,,,,,,370.15938820003066,370.1740538000595,0.00032480002846568823,370.1740538000595,370.3754070000723,372.15298220003024,372.15298220003024,372.15298220003024,372.163731800043,372.59232609998435,2,task,0.4318470999132842,[0.5433333333333333],[0.015],[1],[0],[0],[2.431847099913284],372.59256390004884,372.59740750002675,0.00010740000288933516,372.89770079997834,374.04962559998967,[],[],[],[],[],[],,,,,190121,001,2025-01-26_17h42.36.042,Foreperiod_task,2024.2.4,89.49578962393147,2025-01-26 17h42.46.816475 -0800,
90,0,90,[0.5433333333333333],[0.015],[1],[0],[0],[2.6853837000671774],[],[],[],[],[],[],0,0,0,0,90,0,90,0,374.063529200037,,,,,,,,,,,,374.04997339996044,374.063529200037,0.0002813000464811921,374.063529200037,374.2637276999885,376.0529067000607,376.0529067000607,376.0529067000607,376.06345220003277,376.736381100025,2,task,0.6853837000671774,[0.5433333333333333],[0.015],[1],[0],[0],[2.6853837000671774],376.7366246000165,376.7415487000253,0.0001183999702334404,377.0416536000557,378.17976680002175,[],[],[],[],[],[],,,,,190121,001,2025-01-26_17h42.36.042,Foreperiod_task,2024.2.4,89.49578962393147,2025-01-26 17h42.46.816475 -0800,
91,0,91,[0.5433333333333333],[0.015],[1],[0],[0],[2.499119299929589],[],[],[],[],[],[],0,0,0,0,91,0,91,0,378.18611750006676,,,,,,,,,,,,378.18011449999176,378.18611750006676,0.00026380002964287996,378.18611750006676,378.3860416000243,380.1753916000016,380.1753916000016,380.1753916000016,380.1864040000364,380.6800895000342,2,task,0.49911929992958903,[0.5433333333333333],[0.015],[1],[0],[0],[2.499119299929589],380.6803698000731,380.68615369999316,0.00015269999857991934,380.98531280003954,382.3018601000076,[],[],[],[],[],[],,,,,190121,001,2025-01-26_17h42.36.042,Foreperiod_task,2024.2.4,89.49578962393147,2025-01-26 17h42.46.816475 -0800,
92,0,92,[0.5433333333333333],[0.015],[1],[0],[0],[2.488043599994853],[],[],[],[],[],[],0,0,0,0,92,0,92,0,382.3079216000624,,,,,,,,,,,,382.30220050003845,382.3079216000624,0.0003046999918296933,382.3079216000624,382.5518827000633,384.2970333000412,384.2970333000412,384.2970333000412,384.30818310007453,384.7909176000394,2,task,0.48804359999485314,[0.5433333333333333],[0.015],[1],[0],[0],[2.488043599994853],384.7911557999905,384.7967341999756,0.00012890005018562078,385.09653069998603,386.23497069999576,[],[],[],[],[],[],,,,,190121,001,2025-01-26_17h42.36.042,Foreperiod_task,2024.2.4,89.49578962393147,2025-01-26 17h42.46.816475 -0800,
93,0,93,[0.5433333333333333],[0.015],[1],[0],[0],[3.397598800016567],[],[],[],[],[],[],0,0,0,0,93,0,93,0,386.2414681999944,,,,,,,,,,,,386.2352480000118,386.2414681999944,0.00022709998302161694,386.2414681999944,386.441960999975,388.2304096000735,388.2304096000735,388.2304096000735,388.2415221000556,389.6334525999846,2,task,1.397598800016567,[0.5433333333333333],[0.015],[1],[0],[0],[3.397598800016567],389.63370910007507,389.64108720002696,0.00011579995043575764,389.94138650002424,391.02285840001423,[],[],[],[],[],[],,,,,190121,001,2025-01-26_17h42.36.042,Foreperiod_task,2024.2.4,89.49578962393147,2025-01-26 17h42.46.816475 -0800,
94,0,94,[0.5433333333333333],[0.015],[1],[0],[0],[3.321557299932465],[],[],[],[],[],[],0,0,0,0,94,0,94,0,391.0301530000288,,,,,,,,,,,,391.02312250004616,391.0301530000288,0.00021810003090649843,391.0301530000288,391.22981869999785,393.019115800038,393.019115800038,393.019115800038,393.03028790000826,394.3453504999634,2,task,1.321557299932465,[0.5433333333333333],[0.015],[1],[0],[0],[3.321557299932465],394.34560940007214,394.3523666000692,0.00011869997251778841,394.6523714000359,396.0124868999701,[],[],[],[],[],[],,,,,190121,001,2025-01-26_17h42.36.042,Foreperiod_task,2024.2.4,89.49578962393147,2025-01-26 17h42.46.816475 -0800,
95,0,95,[0.5433333333333333],[0.015],[1],[0],[0],[2.4326202999800444],[],[],[],[],[],[],0,0,0,0,95,0,95,0,396.01885790005326,,,,,,,,,,,,396.01283809996676,396.01885790005326,0.00027630000840872526,396.01885790005326,396.2192237999989,398.0079369000159,398.0079369000159,398.0079369000159,398.0191379999742,398.4461754000513,2,task,0.43262029998004436,[0.5433333333333333],[0.015],[1],[0],[0],[2.4326202999800444],398.44641460001003,398.45201490004547,0.00011809996794909239,398.75264950003475,400.0342510000337,[],[],[],[],[],[],,,,,190121,001,2025-01-26_17h42.36.042,Foreperiod_task,2024.2.4,89.49578962393147,2025-01-26 17h42.46.816475 -0800,
96,0,96,[0.5433333333333333],[0.015],[1],[0],[0],[2.8001228000503033],[],[],[],[],[],[],0,0,0,0,96,0,96,0,400.0411595000187,,,,,,,,,,,,400.0345270000398,400.0411595000187,0.00023410003632307053,400.0411595000187,400.24114389996976,402.03020230005495,402.03020230005495,402.03020230005495,402.041401399998,402.83536659996025,2,task,0.8001228000503033,[0.5433333333333333],[0.015],[1],[0],[0],[2.8001228000503033],402.83567070006393,402.84088829997927,0.00020870007574558258,403.14108880003914,404.20100770005956,[],[],[],[],[],[],,,,,190121,001,2025-01-26_17h42.36.042,Foreperiod_task,2024.2.4,89.49578962393147,2025-01-26 17h42.46.816475 -0800,
97,0,97,[0.5433333333333333],[0.015],[1],[0],[0],[2.431319900089875],[],[],[],[],[],[],0,0,0,0,97,0,97,0,404.20809249999,,,,,,,,,,,,404.20130159996916,404.20809249999,0.00024319998919963837,404.20809249999,404.407826700015,406.19702880003024,406.19702880003024,406.19702880003024,406.2080273000756,406.6334054999752,2,task,0.43131990008987486,[0.5433333333333333],[0.015],[1],[0],[0],[2.431319900089875],406.6336664999835,406.6409723999677,0.00012310000602155924,406.9407731000101,408.121882300009,[],[],[],[],[],[],,,,,190121,001,2025-01-26_17h42.36.042,Foreperiod_task,2024.2.4,89.49578962393147,2025-01-26 17h42.46.816475 -0800,
98,0,98,[0.5433333333333333],[0.015],[1],[0],[0],[2.434373899945058],[],[],[],[],[],[],0,0,0,0,98,0,98,0,408.12952159997076,,,,,,,,,,,,408.122229599976,408.12952159997076,0.0002780999056994915,408.12952159997076,408.32983820000663,410.11846959998365,410.11846959998365,410.11846959998365,410.1292829000158,410.5573418000713,2,task,0.43437389994505793,[0.5433333333333333],[0.015],[1],[0],[0],[2.434373899945058],410.5575725999661,410.5630924999714,0.00012769992463290691,410.86336550000124,411.76810630003456,[],[],[],[],[],[],,,,,190121,001,2025-01-26_17h42.36.042,Foreperiod_task,2024.2.4,89.49578962393147,2025-01-26 17h42.46.816475 -0800,
99,0,99,[0.5433333333333333],[0.015],[1],[0],[0],[2.6973042000317946],[],[],[],[],[],[],0,0,0,0,99,0,99,0,411.77454210002907,,,,,,,,,,,,411.76847740006633,411.77454210002907,0.0003090000245720148,411.77454210002907,411.97451039997395,413.7629532000283,413.7629532000283,413.7629532000283,413.7740959000075,414.46643040003255,2,task,0.6973042000317946,[0.5433333333333333],[0.015],[1],[0],[0],[2.6973042000317946],414.46663559996523,414.47424500004854,0.00011239992454648018,414.77455450000707,415.69112460000906,[],[],[],[],[],[],,,,,190121,001,2025-01-26_17h42.36.042,Foreperiod_task,2024.2.4,89.49578962393147,2025-01-26 17h42.46.816475 -0800,
,,,,,,,,,,,,,,,,,,,,,,,,,,,,,,,,,,,,,,,,,,,,,,,,,,,,,,,,,,,,,,,,,,415.70871779997833,415.7400514000328,415.7400514000328,,,,,,,,
