thisN,thisTrialN,thisRepN,mouse.x,mouse.y,mouse.leftButton,mouse.midButton,mouse.rightButton,mouse.time,trials_3.thisRepN,trials_3.thisTrialN,trials_3.thisN,trials_3.thisIndex,trials_2.thisRepN,trials_2.thisTrialN,trials_2.thisN,trials_2.thisIndex,thisRow.t,notes,Welcome_Screen.started,Welcome_Text.started,mouse_2.started,Welcome_Screen.stopped,mouse_2.x,mouse_2.y,mouse_2.leftButton,mouse_2.midButton,mouse_2.rightButton,mouse_2.time,Trial_2.started,PLUS_FP.started,mouse.started,AVG.started,Photodiode_plus.started,Photodiode_plus.stopped,PLUS_FP.stopped,polygon.started,Photodiode_polygon.started,Photodiode_polygon.stopped,Trial_2.stopped,FixDur,Type,RT,trials_2.mouse.x,trials_2.mouse.y,trials_2.mouse.leftButton,trials_2.mouse.midButton,trials_2.mouse.rightButton,trials_2.mouse.time,Intertrial_Period.started,Photodiode_2.started,Photodiode_2.stopped,Intertrial_Period.stopped,text.started,text.stopped,participant,session,date,expName,psychopyVersion,frameRate,expStart,
,,,,,,,,,,,,,,,,,,,0.0032130004838109016,0.020472300238907337,0.0030570998787879944,41.105484100058675,[-0.47314814814814815],[0.018518518518518517],[1],[0],[0],[41.10184200014919],,,,,,,,,,,,,,,,,,,,,,,,,,,192905,001,2024-11-15_14h23.00.800,Foreperiod_task,2024.2.1post4,59.9575742279025,2024-11-15 14h23.05.970879 -0800,
0,0,0,[-0.3416666666666667],[0.11666666666666667],[1],[0],[0],[4.353709999471903],0,0,0,0,0,0,0,0,41.12180829979479,,,,,,,,,,,,41.10619660001248,41.12180829979479,0.0006574997678399086,41.12180829979479,41.12180829979479,41.32232640031725,43.10652040038258,43.10652040038258,43.10652040038258,43.12397880014032,45.46055550035089,2,normal,2.353709999471903,[-0.3416666666666667],[0.11666666666666667],[1],[0],[0],[4.353709999471903],45.460936499759555,45.47552070021629,45.776017299853265,46.794335399754345,,,192905,001,2024-11-15_14h23.00.800,Foreperiod_task,2024.2.1post4,59.9575742279025,2024-11-15 14h23.05.970879 -0800,
1,0,1,[-0.37407407407407406],[0.2638888888888889],[1],[0],[0],[2.284630499780178],0,0,0,0,1,0,1,0,46.81013169977814,,,,,,,,,,,,46.794691200368106,46.81013169977814,0.00038160011172294617,46.81013169977814,46.81013169977814,47.01025949977338,47.29397999960929,47.29397999960929,47.29397999960929,47.31038579996675,49.08000830002129,0.5,normal,1.784630499780178,[-0.37407407407407406],[0.2638888888888889],[1],[0],[0],[2.284630499780178],49.08032360021025,49.09545260015875,49.39568670000881,50.43052479997277,,,192905,001,2024-11-15_14h23.00.800,Foreperiod_task,2024.2.1post4,59.9575742279025,2024-11-15 14h23.05.970879 -0800,
2,0,2,[-0.31851851851851853],[0.2814814814814815],[1],[0],[0],[4.736927499994636],0,0,0,0,2,0,2,0,50.446561000309885,,,,,,,,,,,,50.430795500054955,50.446561000309885,0.0002866992726922035,50.446561000309885,50.446561000309885,50.646702899597585,52.431481000036,52.431481000036,52.431481000036,52.44816080015153,55.16844329982996,2,normal,2.7369274999946356,[-0.31851851851851853],[0.2814814814814815],[1],[0],[0],[4.736927499994636],55.168790499679744,55.1838143998757,55.48398349992931,56.65229749958962,,,192905,001,2024-11-15_14h23.00.800,Foreperiod_task,2024.2.1post4,59.9575742279025,2024-11-15 14h23.05.970879 -0800,
3,0,3,[-0.37592592592592594],[0.14351851851851852],[1],[0],[0],[5.92145590018481],0,0,0,0,3,0,3,0,56.668351099826396,,,,,,,,,,,,56.65255040023476,56.668351099826396,0.00026929937303066254,56.668351099826396,56.668351099826396,56.86852649971843,57.151468000374734,57.151468000374734,57.151468000374734,57.1681045005098,62.574726100079715,0.5,normal,5.42145590018481,[-0.37592592592592594],[0.14351851851851852],[1],[0],[0],[5.92145590018481],62.57511730026454,62.589962899684906,62.89027629978955,63.791526899673045,,,192905,001,2024-11-15_14h23.00.800,Foreperiod_task,2024.2.1post4,59.9575742279025,2024-11-15 14h23.05.970879 -0800,
4,0,4,[-0.3861111111111111],[0.14907407407407408],[1],[0],[0],[5.187546799890697],0,0,0,0,4,0,4,0,63.80764579959214,,,,,,,,,,,,63.791796900331974,63.80764579959214,0.0002874992787837982,63.80764579959214,63.80764579959214,64.00796800013632,65.79268409963697,65.79268409963697,65.79268409963697,65.80928680021316,68.98017940018326,2,normal,3.187546799890697,[-0.3861111111111111],[0.14907407407407408],[1],[0],[0],[5.187546799890697],68.98058850038797,68.99548729974777,69.29555719997734,70.54736610036343,,,192905,001,2024-11-15_14h23.00.800,Foreperiod_task,2024.2.1post4,59.9575742279025,2024-11-15 14h23.05.970879 -0800,
5,0,5,[-0.4],[0.15],[1],[0],[0],[3.5022911997511983],0,0,0,0,5,0,5,0,70.56332099996507,,,,,,,,,,,,70.54764080047607,70.56332099996507,0.000296800397336483,70.56332099996507,70.56332099996507,70.76334150042385,72.54761500004679,72.54761500004679,72.54761500004679,72.56503080017865,74.05072739999741,2,normal,1.5022911997511983,[-0.4],[0.15],[1],[0],[0],[3.5022911997511983],74.05112050008029,74.06632860004902,74.36633090022951,75.50186690036207,,,192905,001,2024-11-15_14h23.00.800,Foreperiod_task,2024.2.1post4,59.9575742279025,2024-11-15 14h23.05.970879 -0800,
6,0,6,[-0.41944444444444445],[0.15833333333333333],[1],[0],[0],[1.5170790003612638],0,0,0,0,6,0,6,0,75.51771700009704,,,,,,,,,,,,75.50212640035897,75.51771700009704,0.00027449987828731537,75.51771700009704,75.51771700009704,75.71746619977057,76.00132950022817,76.00132950022817,76.00132950022817,76.01772630028427,77.01991270016879,0.5,normal,1.0170790003612638,[-0.41944444444444445],[0.15833333333333333],[1],[0],[0],[1.5170790003612638],77.02038259990513,77.03524679969996,77.33551510050893,78.35360649973154,,,192905,001,2024-11-15_14h23.00.800,Foreperiod_task,2024.2.1post4,59.9575742279025,2024-11-15 14h23.05.970879 -0800,
7,0,7,[-0.38981481481481484],[0.1425925925925926],[1],[0],[0],[2.752765699289739],0,0,0,0,7,0,7,0,78.3694176999852,,,,,,,,,,,,78.35380890034139,78.3694176999852,0.0002117995172739029,78.3694176999852,78.3694176999852,78.5699936999008,80.35476529970765,80.35476529970765,80.35476529970765,80.37152680009604,81.10735700000077,2,normal,0.7527656992897391,[-0.38981481481481484],[0.1425925925925926],[1],[0],[0],[2.752765699289739],81.107789600268,81.12208459991962,81.42225650046021,82.47406429983675,,,192905,001,2024-11-15_14h23.00.800,Foreperiod_task,2024.2.1post4,59.9575742279025,2024-11-15 14h23.05.970879 -0800,
8,0,8,[-0.36944444444444446],[0.14351851851851852],[1],[0],[0],[1.1508146999403834],0,0,0,0,8,0,8,0,82.4899869998917,,,,,,,,,,,,82.47433929983526,82.4899869998917,0.0002816002815961838,82.4899869998917,82.4899869998917,82.69006719999015,82.97363760042936,82.97363760042936,82.97363760042936,82.99034390039742,83.6260112002492,0.5,normal,0.6508146999403834,[-0.36944444444444446],[0.14351851851851852],[1],[0],[0],[1.1508146999403834],83.62660029996186,83.64075700007379,83.94097269978374,85.17608040012419,,,192905,001,2024-11-15_14h23.00.800,Foreperiod_task,2024.2.1post4,59.9575742279025,2024-11-15 14h23.05.970879 -0800,
9,0,9,[-0.37037037037037035],[0.14166666666666666],[1],[0],[0],[0.8673132006078959],0,0,0,0,9,0,9,0,85.19220810011029,,,,,,,,,,,,85.17635659966618,85.19220810011029,0.00029029976576566696,85.19220810011029,85.19220810011029,85.39231889974326,85.67588340025395,85.67588340025395,85.67588340025395,85.69259210024029,86.04438660014421,0.5,normal,0.36731320060789585,[-0.37037037037037035],[0.14166666666666666],[1],[0],[0],[0.8673132006078959],86.04480599984527,86.05950060021132,86.35979150049388,87.32810179982334,,,192905,001,2024-11-15_14h23.00.800,Foreperiod_task,2024.2.1post4,59.9575742279025,2024-11-15 14h23.05.970879 -0800,
10,0,10,[-0.37037037037037035],[0.14166666666666666],[1],[0],[0],[1.5839942004531622],0,0,0,0,10,0,10,0,87.34382670000196,,,,,,,,,,,,87.32838129997253,87.34382670000196,0.00029879994690418243,87.34382670000196,87.34382670000196,87.54407269973308,88.52837010007352,88.52837010007352,88.52837010007352,88.54513449966908,88.91303960047662,1.1891985190369618,surprise,0.39479568141620036,[-0.37037037037037035],[0.14166666666666666],[1],[0],[0],[1.5839942004531622],88.91346659976989,88.92846750002354,89.22874779999256,90.54737859964371,,,192905,001,2024-11-15_14h23.00.800,Foreperiod_task,2024.2.1post4,59.9575742279025,2024-11-15 14h23.05.970879 -0800,
11,0,11,[-0.37037037037037035],[0.14166666666666666],[1],[0],[0],[2.385084900073707],0,0,0,0,11,0,11,0,90.5632442003116,,,,,,,,,,,,90.54765359964222,90.5632442003116,0.0002841996029019356,90.5632442003116,90.5632442003116,90.7633455004543,92.54834119975567,92.54834119975567,92.54834119975567,92.5648964997381,92.93359750043601,2,normal,0.3850849000737071,[-0.37037037037037035],[0.14166666666666666],[1],[0],[0],[2.385084900073707],92.93416540045291,92.94869580026716,93.2485424997285,94.60072119999677,,,192905,001,2024-11-15_14h23.00.800,Foreperiod_task,2024.2.1post4,59.9575742279025,2024-11-15 14h23.05.970879 -0800,
12,0,12,[-0.362962962962963],[0.1175925925925926],[1],[0],[0],[7.2059864001348615],0,0,0,0,12,0,12,0,94.61661799997091,,,,,,,,,,,,94.60096499975771,94.61661799997091,0.00024990085512399673,94.61661799997091,94.61661799997091,94.81669939961284,96.60155939962715,96.60155939962715,96.60155939962715,96.61826809961349,101.80789779964834,2,normal,5.2059864001348615,[-0.362962962962963],[0.1175925925925926],[1],[0],[0],[7.2059864001348615],101.80863669980317,101.82291470002383,102.12266840040684,103.02438309974968,,,192905,001,2024-11-15_14h23.00.800,Foreperiod_task,2024.2.1post4,59.9575742279025,2024-11-15 14h23.05.970879 -0800,
13,0,13,[-0.362962962962963],[0.1175925925925926],[1],[0],[0],[3.4358883993700147],0,0,0,0,13,0,13,0,103.04039159975946,,,,,,,,,,,,103.02465770021081,103.04039159975946,0.00028590019792318344,103.04039159975946,103.04039159975946,103.24012750014663,103.5241315998137,103.5241315998137,103.5241315998137,103.54065109975636,106.46141880005598,0.5,normal,2.9358883993700147,[-0.362962962962963],[0.1175925925925926],[1],[0],[0],[3.4358883993700147],106.4618196003139,106.4765737997368,106.77659470029175,107.81157539971173,,,192905,001,2024-11-15_14h23.00.800,Foreperiod_task,2024.2.1post4,59.9575742279025,2024-11-15 14h23.05.970879 -0800,
14,0,14,[-0.3638888888888889],[0.1111111111111111],[1],[0],[0],[2.835310500115156],0,0,0,0,14,0,14,0,107.82763169985265,,,,,,,,,,,,107.81186859961599,107.82763169985265,0.00031450018286705017,107.82763169985265,107.82763169985265,108.02751229982823,108.31125780008733,108.31125780008733,108.31125780008733,108.32787000015378,110.64804309979081,0.5,normal,2.335310500115156,[-0.3638888888888889],[0.1111111111111111],[1],[0],[0],[2.835310500115156],110.6484011001885,110.66328820027411,110.96349720004946,112.14844959974289,,,192905,001,2024-11-15_14h23.00.800,Foreperiod_task,2024.2.1post4,59.9575742279025,2024-11-15 14h23.05.970879 -0800,
15,0,15,[-0.41388888888888886],[0.10833333333333334],[1],[0],[0],[16.012979900464416],0,0,0,0,15,0,15,0,112.16449190024287,,,,,,,,,,,,112.14871869981289,112.16449190024287,0.0002830997109413147,112.16449190024287,112.16449190024287,112.36464499961585,113.3323860000819,113.3323860000819,113.3323860000819,113.34882900025696,128.16253510024399,1.1754376204881671,surprise,14.837542279976248,[-0.41388888888888886],[0.10833333333333334],[1],[0],[0],[16.012979900464416],128.16300200019032,128.1778384996578,128.4779356000945,129.82989449985325,,,192905,001,2024-11-15_14h23.00.800,Foreperiod_task,2024.2.1post4,59.9575742279025,2024-11-15 14h23.05.970879 -0800,
16,0,16,[-0.41759259259259257],[0.10925925925925926],[1],[0],[0],[1.45085640065372],0,0,0,0,16,0,16,0,129.84582480043173,,,,,,,,,,,,129.8301408002153,129.84582480043173,0.0002615004777908325,129.84582480043173,129.84582480043173,130.0460133003071,130.34575210046023,130.34575210046023,130.34575210046023,130.36307589989156,131.28187279962003,0.5,normal,0.9508564006537199,[-0.41759259259259257],[0.10925925925925926],[1],[0],[0],[1.45085640065372],131.28244059998542,131.29658239986748,131.59723019972444,132.94918620027602,,,192905,001,2024-11-15_14h23.00.800,Foreperiod_task,2024.2.1post4,59.9575742279025,2024-11-15 14h23.05.970879 -0800,
17,0,17,[-0.4166666666666667],[0.10925925925925926],[1],[0],[0],[1.0171429999172688],0,0,0,0,17,0,17,0,132.96545960009098,,,,,,,,,,,,132.94938190001994,132.96545960009098,0.00020170025527477264,132.96545960009098,132.96545960009098,133.16576880030334,,,,,133.9671879997477,2,normal,-0.9828570000827312,[-0.4166666666666667],[0.10925925925925926],[1],[0],[0],[1.0171429999172688],133.9675177000463,133.9818606004119,134.28305369988084,135.46823170036077,133.9818606004119,,192905,001,2024-11-15_14h23.00.800,Foreperiod_task,2024.2.1post4,59.9575742279025,2024-11-15 14h23.05.970879 -0800,
18,0,18,[-0.42407407407407405],[0.10925925925925926],[1],[0],[0],[1.3999987002462149],0,0,0,0,18,0,18,0,135.4839441999793,,,,,,,,,,,,135.46850439999253,135.4839441999793,0.0002805003896355629,135.4839441999793,135.4839441999793,135.68403740040958,135.96793649997562,135.96793649997562,135.96793649997562,135.9847694998607,136.869280599989,0.5,normal,0.8999987002462149,[-0.42407407407407405],[0.10925925925925926],[1],[0],[0],[1.3999987002462149],136.8698292998597,136.88525759987533,137.18534190021455,138.37052439991385,,,192905,001,2024-11-15_14h23.00.800,Foreperiod_task,2024.2.1post4,59.9575742279025,2024-11-15 14h23.05.970879 -0800,
19,0,19,[-0.42314814814814816],[0.1],[1],[0],[0],[1.1505160005763173],0,0,0,0,19,0,19,0,138.38631450012326,,,,,,,,,,,,138.37079180032015,138.38631450012326,0.000291699543595314,138.38631450012326,138.38631450012326,138.5865388000384,,,,,139.52216180041432,2,normal,-0.8494839994236827,[-0.42314814814814816],[0.1],[1],[0],[0],[1.1505160005763173],139.52256800048053,139.5371168004349,139.83752810023725,141.0059781000018,139.5371168004349,,192905,001,2024-11-15_14h23.00.800,Foreperiod_task,2024.2.1post4,59.9575742279025,2024-11-15 14h23.05.970879 -0800,
20,0,20,[-0.42314814814814816],[0.1],[1],[0],[0],[1.9179817996919155],0,0,0,0,20,0,20,0,141.021936500445,,,,,,,,,,,,141.00625940039754,141.021936500445,0.0002956995740532875,141.021936500445,141.021936500445,141.22218170017004,141.50589579995722,141.50589579995722,141.50589579995722,141.52245279960334,142.92497619986534,0.5,normal,1.4179817996919155,[-0.42314814814814816],[0.1],[1],[0],[0],[1.9179817996919155],142.92537569999695,142.94020580034703,143.2402774002403,144.42548479977995,,,192905,001,2024-11-15_14h23.00.800,Foreperiod_task,2024.2.1post4,59.9575742279025,2024-11-15 14h23.05.970879 -0800,
21,0,21,[-0.4212962962962963],[0.09444444444444444],[1],[0],[0],[25.337343100458384],0,0,0,0,21,0,21,0,144.4413794996217,,,,,,,,,,,,144.4257286004722,144.4413794996217,0.00026139989495277405,144.4413794996217,144.4413794996217,144.64177380036563,146.42643909994513,146.42643909994513,146.42643909994513,146.44316359981894,169.76383540034294,2,normal,23.337343100458384,[-0.4212962962962963],[0.09444444444444444],[1],[0],[0],[25.337343100458384],169.76433570031077,169.77917139977217,170.07944849971682,170.98063430003822,,,192905,001,2024-11-15_14h23.00.800,Foreperiod_task,2024.2.1post4,59.9575742279025,2024-11-15 14h23.05.970879 -0800,
22,0,22,[0.023148148148148147],[0.09351851851851851],[1],[0],[0],[0.7010303996503353],0,0,0,0,22,0,22,0,170.99665290024132,,,,,,,,,,,,170.9809191999957,170.99665290024132,0.00029740016907453537,170.99665290024132,170.99665290024132,171.19707959983498,171.4803672004491,171.4803672004491,171.4803672004491,171.4970581997186,171.682636000216,0.5,normal,0.2010303996503353,[0.023148148148148147],[0.09351851851851851],[1],[0],[0],[0.7010303996503353],171.68294959980994,171.6974298004061,171.9979654001072,172.9656314998865,,,192905,001,2024-11-15_14h23.00.800,Foreperiod_task,2024.2.1post4,59.9575742279025,2024-11-15 14h23.05.970879 -0800,
23,0,23,[-0.03611111111111111],[0.25],[1],[0],[0],[0.2503348998725414],0,0,0,0,23,0,23,0,172.98173539992422,,,,,,,,,,,,172.96590940002352,172.98173539992422,0.0002926001325249672,172.98173539992422,172.98173539992422,173.18196179997176,,,,,173.21728449966758,0.5,normal,-0.24966510012745857,[-0.03611111111111111],[0.25],[1],[0],[0],[0.2503348998725414],173.21778209973127,173.2321953997016,173.53258019965142,173.7163589997217,173.2321953997016,173.73254420049489,192905,001,2024-11-15_14h23.00.800,Foreperiod_task,2024.2.1post4,59.9575742279025,2024-11-15 14h23.05.970879 -0800,
24,0,24,[-0.06666666666666667],[0.43148148148148147],[1],[0],[0],[1.567951399832964],0,0,0,0,24,0,24,0,173.73254420049489,,,,,,,,,,,,173.71659720037133,173.73254420049489,0.0002533998340368271,173.73254420049489,173.73254420049489,173.9326146999374,,,,,175.2853071000427,2,normal,-0.43204860016703606,[-0.06666666666666667],[0.43148148148148147],[1],[0],[0],[1.567951399832964],175.2859255997464,175.2999146003276,175.60075800027698,176.5018862001598,175.2999146003276,,192905,001,2024-11-15_14h23.00.800,Foreperiod_task,2024.2.1post4,59.9575742279025,2024-11-15 14h23.05.970879 -0800,
25,0,25,[0.019444444444444445],[0.4148148148148148],[1],[0],[0],[1.0341056007891893],0,0,0,0,25,0,25,0,176.51813630014658,,,,,,,,,,,,176.50207240041345,176.51813630014658,0.00019690021872520447,176.51813630014658,176.51813630014658,176.71824570000172,177.00200259964913,177.00200259964913,177.00200259964913,177.01864940021187,177.53682710044086,0.5,normal,0.5341056007891893,[0.019444444444444445],[0.4148148148148148],[1],[0],[0],[1.0341056007891893],177.5371385999024,177.55210180021822,177.85252240020782,178.75422360002995,,,192905,001,2024-11-15_14h23.00.800,Foreperiod_task,2024.2.1post4,59.9575742279025,2024-11-15 14h23.05.970879 -0800,
26,0,26,[0.019444444444444445],[0.4148148148148148],[1],[0],[0],[1.150573099963367],0,0,0,0,26,0,26,0,178.76995769981295,,,,,,,,,,,,178.75453250017017,178.76995769981295,0.00031880009919404984,178.76995769981295,178.76995769981295,178.97010129969567,179.2537783002481,179.2537783002481,179.2537783002481,179.27026289980859,179.9059570003301,0.5,normal,0.650573099963367,[0.019444444444444445],[0.4148148148148148],[1],[0],[0],[1.150573099963367],179.9065500004217,179.92127650044858,180.2213858999312,181.5062375999987,,,192905,001,2024-11-15_14h23.00.800,Foreperiod_task,2024.2.1post4,59.9575742279025,2024-11-15 14h23.05.970879 -0800,
27,0,27,[0.022222222222222223],[0.41944444444444445],[1],[0],[0],[0.9002914996817708],0,0,0,0,27,0,27,0,181.52210339996964,,,,,,,,,,,,181.50654810015112,181.52210339996964,0.0003289002925157547,181.52210339996964,181.52210339996964,181.7223127996549,182.00592849962413,182.00592849962413,182.00592849962413,182.02258449979126,182.4075512001291,0.5,normal,0.4002914996817708,[0.022222222222222223],[0.41944444444444445],[1],[0],[0],[0.9002914996817708],182.40792839974165,182.42205980047584,182.72255160007626,183.89150390028954,,,192905,001,2024-11-15_14h23.00.800,Foreperiod_task,2024.2.1post4,59.9575742279025,2024-11-15 14h23.05.970879 -0800,
28,0,28,[-0.2212962962962963],[0.4462962962962963],[1],[0],[0],[2.5019373996183276],0,0,0,0,28,0,28,0,183.90749670006335,,,,,,,,,,,,183.8917629001662,183.90749670006335,0.0002830997109413147,183.90749670006335,183.90749670006335,184.10722609981894,185.1088471999392,185.1088471999392,185.1088471999392,185.12531980033964,186.39455030020326,1.218188681721489,surprise,1.2837487178968385,[-0.2212962962962963],[0.4462962962962963],[1],[0],[0],[2.5019373996183276],186.39498890005052,186.4091860000044,186.70986790023744,187.77834099996835,,,192905,001,2024-11-15_14h23.00.800,Foreperiod_task,2024.2.1post4,59.9575742279025,2024-11-15 14h23.05.970879 -0800,
29,0,29,[-0.24259259259259258],[0.4740740740740741],[1],[0],[0],[1.0837878994643688],0,0,0,0,29,0,29,0,187.79419879987836,,,,,,,,,,,,187.7787097003311,187.79419879987836,0.00038480013608932495,187.79419879987836,187.79419879987836,187.99458589963615,188.27842320036143,188.27842320036143,188.27842320036143,188.29465680010617,188.8632490998134,0.5,normal,0.5837878994643688,[-0.24259259259259258],[0.4740740740740741],[1],[0],[0],[1.0837878994643688],188.86381589993834,188.87837450020015,189.17804179992527,190.3971148999408,,,192905,001,2024-11-15_14h23.00.800,Foreperiod_task,2024.2.1post4,59.9575742279025,2024-11-15 14h23.05.970879 -0800,
30,0,30,[-0.2462962962962963],[0.4787037037037037],[1],[0],[0],[0.04989270027726889],0,0,0,0,30,0,30,0,190.41312419995666,,,,,,,,,,,,190.39736669976264,190.41312419995666,0.0002701999619603157,190.41312419995666,190.41312419995666,,,,,,190.44823329988867,2,normal,-1.9501072997227311,[-0.2462962962962963],[0.4787037037037037],[1],[0],[0],[0.04989270027726889],190.4484636997804,190.46252110041678,190.76334530021995,191.68162619974464,190.46252110041678,,192905,001,2024-11-15_14h23.00.800,Foreperiod_task,2024.2.1post4,59.9575742279025,2024-11-15 14h23.05.970879 -0800,
31,0,31,[-0.2518518518518518],[0.4898148148148148],[1],[0],[0],[2.2686738995835185],0,0,0,0,31,0,31,0,191.69750859960914,,,,,,,,,,,,191.6819018004462,191.69750859960914,0.00028899963945150375,191.69750859960914,191.69750859960914,191.89748539961874,193.68286969978362,193.68286969978362,193.68286969978362,193.69953580014408,193.9513627998531,2,normal,0.2686738995835185,[-0.2518518518518518],[0.4898148148148148],[1],[0],[0],[2.2686738995835185],193.95183280017227,193.96601229999214,194.2661394001916,195.45087909977883,,,192905,001,2024-11-15_14h23.00.800,Foreperiod_task,2024.2.1post4,59.9575742279025,2024-11-15 14h23.05.970879 -0800,
32,0,32,[-0.2611111111111111],[0.49444444444444446],[1],[0],[0],[1.7851570006459951],0,0,0,0,32,0,32,0,195.46682490035892,,,,,,,,,,,,195.4510243004188,195.46682490035892,0.00014739949256181717,195.46682490035892,195.46682490035892,195.667317699641,195.95087299961597,195.95087299961597,195.95087299961597,195.96769599989057,197.236961199902,0.5,normal,1.2851570006459951,[-0.2611111111111111],[0.49444444444444446],[1],[0],[0],[1.7851570006459951],197.23744329996407,197.25214300025254,197.5523357000202,198.504074299708,,,192905,001,2024-11-15_14h23.00.800,Foreperiod_task,2024.2.1post4,59.9575742279025,2024-11-15 14h23.05.970879 -0800,
33,0,33,[-0.275],[0.5],[1],[0],[0],[1.4003917006775737],0,0,0,0,33,0,33,0,198.5197176001966,,,,,,,,,,,,198.50438539963216,198.5197176001966,0.0003249002620577812,198.5197176001966,198.5197176001966,198.71984549984336,,,,,199.9056620001793,2,normal,-0.5996082993224263,[-0.275],[0.5],[1],[0],[0],[1.4003917006775737],199.90620269998908,199.9208979997784,200.22107390034944,201.1726414002478,199.9208979997784,,192905,001,2024-11-15_14h23.00.800,Foreperiod_task,2024.2.1post4,59.9575742279025,2024-11-15 14h23.05.970879 -0800,
34,0,34,[-0.275],[0.5],[1],[0],[0],[2.084878299385309],0,0,0,0,34,0,34,0,201.18892680015415,,,,,,,,,,,,201.17293480038643,201.18892680015415,0.00030320044606924057,201.18892680015415,201.18892680015415,201.38887799996883,201.6724036000669,201.6724036000669,201.6724036000669,201.68906060047448,203.25867849960923,0.5,normal,1.5848782993853092,[-0.275],[0.5],[1],[0],[0],[2.084878299385309],203.25913439970464,203.27354240044951,203.5741159999743,204.94240009970963,,,192905,001,2024-11-15_14h23.00.800,Foreperiod_task,2024.2.1post4,59.9575742279025,2024-11-15 14h23.05.970879 -0800,
35,0,35,[-0.2759259259259259],[0.5],[1],[0],[0],[0.1828385004773736],0,0,0,0,35,0,35,0,204.95848220027983,,,,,,,,,,,,204.94269550032914,204.95848220027983,0.0003035999834537506,204.95848220027983,204.95848220027983,,,,,,205.12651209998876,2,normal,-1.8171614995226264,[-0.2759259259259259],[0.5],[1],[0],[0],[0.1828385004773736],205.12717300001532,205.14214110001922,205.44162849988788,206.35998329985887,205.14214110001922,,192905,001,2024-11-15_14h23.00.800,Foreperiod_task,2024.2.1post4,59.9575742279025,2024-11-15 14h23.05.970879 -0800,
36,0,36,[-0.35833333333333334],[0.5],[1],[0],[0],[6.956688700243831],0,0,0,0,36,0,36,0,206.37611790001392,,,,,,,,,,,,206.36023060046136,206.37611790001392,0.00025799963623285294,206.37611790001392,206.37611790001392,206.57622309960425,206.86025100015104,206.86025100015104,206.86025100015104,206.87672009970993,213.31770309992135,0.5,normal,6.456688700243831,[-0.35833333333333334],[0.5],[1],[0],[0],[6.956688700243831],213.3182837003842,213.33210329990834,213.63226359989494,214.90048850048333,,,192905,001,2024-11-15_14h23.00.800,Foreperiod_task,2024.2.1post4,59.9575742279025,2024-11-15 14h23.05.970879 -0800,
37,0,37,[-0.26296296296296295],[0.4824074074074074],[1],[0],[0],[98.7821300001815],0,0,0,0,37,0,37,0,214.91654940042645,,,,,,,,,,,,214.9007558003068,214.91654940042645,0.0002781003713607788,214.91654940042645,214.91654940042645,215.1167649999261,216.90180830005556,216.90180830005556,216.90180830005556,216.9183924002573,313.6837032996118,2,normal,96.7821300001815,[-0.26296296296296295],[0.4824074074074074],[1],[0],[0],[98.7821300001815],313.6841604998335,313.6989471996203,313.9990105004981,314.9503640998155,,,192905,001,2024-11-15_14h23.00.800,Foreperiod_task,2024.2.1post4,59.9575742279025,2024-11-15 14h23.05.970879 -0800,
38,0,38,[0.37222222222222223],[0.21388888888888888],[1],[0],[0],[1.133945600129664],0,0,0,0,38,0,38,0,314.96655560005456,,,,,,,,,,,,314.95060089975595,314.96655560005456,0.0002533998340368271,314.96655560005456,314.96655560005456,315.16703539993614,,,,,316.08531800005585,2,normal,-0.8660543998703361,[0.37222222222222223],[0.21388888888888888],[1],[0],[0],[1.133945600129664],316.0857515996322,316.1009833998978,316.40129140019417,317.55274510011077,316.1009833998978,,192905,001,2024-11-15_14h23.00.800,Foreperiod_task,2024.2.1post4,59.9575742279025,2024-11-15 14h23.05.970879 -0800,
39,0,39,[0.37222222222222223],[0.21388888888888888],[1],[0],[0],[0.7835497995838523],0,0,0,0,39,0,39,0,317.56865539960563,,,,,,,,,,,,317.5530497999862,317.56865539960563,0.00033459998667240143,317.56865539960563,317.56865539960563,317.7687616003677,,,,,318.3374939998612,1.0118387875467336,surprise,-0.22828898796288133,[0.37222222222222223],[0.21388888888888888],[1],[0],[0],[0.7835497995838523],318.33802120015025,318.35263159964234,318.6531066996977,319.3541975999251,318.35263159964234,319.3702734000981,192905,001,2024-11-15_14h23.00.800,Foreperiod_task,2024.2.1post4,59.9575742279025,2024-11-15 14h23.05.970879 -0800,
40,0,40,[0.37222222222222223],[0.21388888888888888],[1],[0],[0],[0.16631199978291988],0,0,0,0,40,0,40,0,319.3702734000981,,,,,,,,,,,,319.3544503999874,319.3702734000981,0.0002680998295545578,319.3702734000981,319.3702734000981,,,,,,319.5214299997315,2,normal,-1.8336880002170801,[0.37222222222222223],[0.21388888888888888],[1],[0],[0],[0.16631199978291988],319.52180640026927,319.53714760020375,319.8372809998691,320.7885736003518,319.53714760020375,,192905,001,2024-11-15_14h23.00.800,Foreperiod_task,2024.2.1post4,59.9575742279025,2024-11-15 14h23.05.970879 -0800,
41,0,41,[0.3685185185185185],[0.22592592592592592],[1],[0],[0],[3.769157299771905],0,0,0,0,41,0,41,0,320.80474159959704,,,,,,,,,,,,320.78882780019194,320.80474159959704,0.00026510003954172134,320.80474159959704,320.80474159959704,321.00494739972055,322.78946129977703,322.78946129977703,322.78946129977703,322.80632949993014,324.5586337996647,2,normal,1.769157299771905,[0.3685185185185185],[0.22592592592592592],[1],[0],[0],[3.769157299771905],324.5589816002175,324.57453360036016,324.8742698999122,326.17647140007466,,,192905,001,2024-11-15_14h23.00.800,Foreperiod_task,2024.2.1post4,59.9575742279025,2024-11-15 14h23.05.970879 -0800,
42,0,42,[0.25092592592592594],[0.26296296296296295],[1],[0],[0],[6.438577299937606],0,0,0,0,42,0,42,0,326.19261949975044,,,,,,,,,,,,326.17671629972756,326.19261949975044,0.00025979988276958466,326.19261949975044,326.19261949975044,326.39263440016657,328.177522899583,328.177522899583,328.177522899583,328.19398589991033,332.6159359999001,2,normal,4.438577299937606,[0.25092592592592594],[0.26296296296296295],[1],[0],[0],[6.438577299937606],332.6162794996053,332.63109690044075,332.9314141003415,334.2333692004904,,,192905,001,2024-11-15_14h23.00.800,Foreperiod_task,2024.2.1post4,59.9575742279025,2024-11-15 14h23.05.970879 -0800,
43,0,43,[0.2759259259259259],[0.2601851851851852],[1],[0],[0],[1.584128700196743],0,0,0,0,43,0,43,0,334.2492273999378,,,,,,,,,,,,334.23365479987115,334.2492273999378,0.0003115003928542137,334.2492273999378,334.2492273999378,334.44939950015396,334.7330507002771,334.7330507002771,334.7330507002771,334.7497977996245,335.81856899987906,0.5,normal,1.084128700196743,[0.2759259259259259],[0.2601851851851852],[1],[0],[0],[1.584128700196743],335.8190721999854,335.83405179996043,336.1341872997582,337.4360295999795,,,192905,001,2024-11-15_14h23.00.800,Foreperiod_task,2024.2.1post4,59.9575742279025,2024-11-15 14h23.05.970879 -0800,
44,0,44,[0.2796296296296296],[0.2574074074074074],[1],[0],[0],[1.0506356004625559],0,0,0,0,44,0,44,0,337.4517267001793,,,,,,,,,,,,337.4363106004894,337.4517267001793,0.0002975994721055031,337.4517267001793,337.4517267001793,337.652091300115,337.93562559969723,337.93562559969723,337.93562559969723,337.9525571996346,338.48766050022095,0.5,normal,0.5506356004625559,[0.2796296296296296],[0.2574074074074074],[1],[0],[0],[1.0506356004625559],338.4881944004446,338.5025958996266,338.8030067002401,340.08840680029243,,,192905,001,2024-11-15_14h23.00.800,Foreperiod_task,2024.2.1post4,59.9575742279025,2024-11-15 14h23.05.970879 -0800,
45,0,45,[0.2898148148148148],[0.22962962962962963],[1],[0],[0],[2.234605299308896],0,0,0,0,45,0,45,0,340.10417900048196,,,,,,,,,,,,340.08864719979465,340.10417900048196,0.0002483995631337166,340.10417900048196,340.10417900048196,340.3041986003518,340.5879111001268,340.5879111001268,340.5879111001268,340.60450190026313,342.3239638004452,0.5,normal,1.734605299308896,[0.2898148148148148],[0.22962962962962963],[1],[0],[0],[2.234605299308896],342.3243538001552,342.3394681001082,342.6395645001903,343.85818920005113,,,192905,001,2024-11-15_14h23.00.800,Foreperiod_task,2024.2.1post4,59.9575742279025,2024-11-15 14h23.05.970879 -0800,
46,0,46,[0.375],[0.18055555555555555],[1],[0],[0],[36.09541769977659],0,0,0,0,46,0,46,0,343.87394259963185,,,,,,,,,,,,343.8585404995829,343.87394259963185,0.00036399997770786285,343.87394259963185,343.87394259963185,344.0738970004022,345.85888709966093,345.85888709966093,345.85888709966093,345.8758119000122,379.95442690048367,2,normal,34.09541769977659,[0.375],[0.18055555555555555],[1],[0],[0],[36.09541769977659],379.9546200996265,379.97066110000014,380.2717668004334,381.5892490996048,,,192905,001,2024-11-15_14h23.00.800,Foreperiod_task,2024.2.1post4,59.9575742279025,2024-11-15 14h23.05.970879 -0800,
47,0,47,[0.8740740740740741],[0.4935185185185185],[1],[0],[0],[439.84885770082474],0,0,0,0,47,0,47,0,381.6053881999105,,,,,,,,,,,,381.58954630047083,381.6053881999105,0.0003420999273657799,381.6053881999105,381.6053881999105,381.8054827004671,383.59027810022235,383.59027810022235,383.59027810022235,383.6070282999426,821.4391237003729,2,normal,437.84885770082474,[0.8740740740740741],[0.4935185185185185],[1],[0],[0],[439.84885770082474],821.4396371999756,821.4545061998069,821.7548436997458,822.6397930998355,,,192905,001,2024-11-15_14h23.00.800,Foreperiod_task,2024.2.1post4,59.9575742279025,2024-11-15 14h23.05.970879 -0800,
48,0,48,[0.8490740740740741],[0.43703703703703706],[1],[0],[0],[1.4342642994597554],0,0,0,0,48,0,48,0,822.6553819002584,,,,,,,,,,,,822.6401080004871,822.6553819002584,0.00032369978725910187,822.6553819002584,822.6553819002584,822.8557949997485,823.1387422000989,823.1387422000989,823.1387422000989,823.1553451996297,824.0760110998526,0.5,normal,0.9342642994597554,[0.8490740740740741],[0.43703703703703706],[1],[0],[0],[1.4342642994597554],824.0764220999554,824.0899152001366,824.390442200005,825.7589972997084,,,192905,001,2024-11-15_14h23.00.800,Foreperiod_task,2024.2.1post4,59.9575742279025,2024-11-15 14h23.05.970879 -0800,
49,0,49,,,,,,,,,,,49,0,49,0,825.7747766003013,,,,,,,,,,,,825.7592727001756,825.7747766003013,0.00028559938073158264,825.7747766003013,825.7747766003013,825.97525329981,826.2586834998801,826.2586834998801,826.2586834998801,826.2752986997366,,,,,,,,,,,,,,,,,,,,,,,,
