thisN,thisTrialN,thisRepN,mouse.x,mouse.y,mouse.leftButton,mouse.midButton,mouse.rightButton,mouse.time,Intertrial_Mouse.x,Intertrial_Mouse.y,Intertrial_Mouse.leftButton,Intertrial_Mouse.midButton,Intertrial_Mouse.rightButton,Intertrial_Mouse.time,trials_3.thisRepN,trials_3.thisTrialN,trials_3.thisN,trials_3.thisIndex,trials_2.thisRepN,trials_2.thisTrialN,trials_2.thisN,trials_2.thisIndex,thisRow.t,notes,Welcome_Screen.started,Welcome_Text.started,mouse_2.started,Welcome_Screen.stopped,mouse_2.x,mouse_2.y,mouse_2.leftButton,mouse_2.midButton,mouse_2.rightButton,mouse_2.time,Trial_2.started,PLUS_FP.started,mouse.started,Photodiode_plus.started,Photodiode_plus.stopped,PLUS_FP.stopped,polygon.started,Photodiode_polygon.started,Photodiode_polygon.stopped,Trial_2.stopped,FixDur,Type,RT,trials_2.mouse.x,trials_2.mouse.y,trials_2.mouse.leftButton,trials_2.mouse.midButton,trials_2.mouse.rightButton,trials_2.mouse.time,Intertrial_Period.started,Photodiode_2.started,Intertrial_Mouse.started,Photodiode_2.stopped,Intertrial_Period.stopped,trials_2.Intertrial_Mouse.x,trials_2.Intertrial_Mouse.y,trials_2.Intertrial_Mouse.leftButton,trials_2.Intertrial_Mouse.midButton,trials_2.Intertrial_Mouse.rightButton,trials_2.Intertrial_Mouse.time,participant,session,date,expName,psychopyVersion,frameRate,expStart,
,,,,,,,,,,,,,,,,,,,,,,,,,0.0029206000035628676,0.0076209999970160425,0.002753899956587702,1.091550000011921,[-0.15833333333333333],[-0.08796296296296297],[1],[0],[0],[1.0880715000093915],,,,,,,,,,,,,,,,,,,,,,,,,,,,,,,338801,001,2025-01-28_11h28.09.343,Foreperiod_task,2024.2.1post4,60.007909046748985,2025-01-28 11h28.15.068366 -0800,
0,0,0,[-0.15555555555555556],[-0.08518518518518518],[1],[0],[0],[2.2943772000144236],[],[],[],[],[],[],0,0,0,0,0,0,0,0,1.1066006000037305,,,,,,,,,,,,1.0965210999711417,1.1066006000037305,0.00489530002232641,1.1066006000037305,1.3070012999814935,3.1072296000202186,3.1072296000202186,3.1072296000202186,3.1242284000036307,3.391702399996575,2,task,0.2943772000144236,[-0.15555555555555556],[-0.08518518518518518],[1],[0],[0],[2.2943772000144236],3.392197099979967,3.4070557999657467,0.000341300037689507,3.7065597000182606,4.9245347999967635,[],[],[],[],[],[],338801,001,2025-01-28_11h28.09.343,Foreperiod_task,2024.2.1post4,60.007909046748985,2025-01-28 11h28.15.068366 -0800,
1,0,1,[-0.15],[-0.07407407407407407],[1],[0],[0],[2.582862599985674],[],[],[],[],[],[],0,0,0,0,1,0,1,0,4.940424699976575,,,,,,,,,,,,4.92486500000814,4.940424699976575,0.0002627999638207257,4.940424699976575,5.140501599991694,6.923821799980942,6.923821799980942,6.923821799980942,6.940529100014828,7.508504799974617,2,task,0.582862599985674,[-0.15],[-0.07407407407407407],[1],[0],[0],[2.582862599985674],7.508975900011137,7.52385499997763,0.00033190002432093024,7.823564200021792,9.14123720000498,[],[],[],[],[],[],338801,001,2025-01-28_11h28.09.343,Foreperiod_task,2024.2.1post4,60.007909046748985,2025-01-28 11h28.15.068366 -0800,
2,0,2,[-0.1425925925925926],[-0.06111111111111111],[1],[0],[0],[2.349628299998585],[],[],[],[],[],[],0,0,0,0,2,0,2,0,9.156562599993777,,,,,,,,,,,,9.141535800008569,9.156562599993777,0.00023060000967234373,9.156562599993777,9.35687349998625,11.157194399973378,11.157194399973378,11.157194399973378,11.17388730001403,11.492042500001844,2,task,0.34962829999858513,[-0.1425925925925926],[-0.06111111111111111],[1],[0],[0],[2.349628299998585],11.492570800008252,11.507274699979462,0.0004050999996252358,11.807018899999093,12.824537999986205,[],[],[],[],[],[],338801,001,2025-01-28_11h28.09.343,Foreperiod_task,2024.2.1post4,60.007909046748985,2025-01-28 11h28.15.068366 -0800,
3,0,3,[-0.14537037037037037],[-0.06018518518518518],[1],[0],[0],[2.44967290002387],[],[],[],[],[],[],0,0,0,0,3,0,3,0,12.84050190000562,,,,,,,,,,,,12.824858199979644,12.84050190000562,0.00024850002955645323,12.84050190000562,13.040654000011273,14.823833999980707,14.823833999980707,14.823833999980707,14.84033229999477,15.275531399995089,2,task,0.44967290002387017,[-0.14537037037037037],[-0.06018518518518518],[1],[0],[0],[2.44967290002387],15.276033699978143,15.290550099976826,0.0003293000045232475,15.5903686999809,16.60784519999288,[],[],[],[],[],[],338801,001,2025-01-28_11h28.09.343,Foreperiod_task,2024.2.1post4,60.007909046748985,2025-01-28 11h28.15.068366 -0800,
4,0,4,[-0.14444444444444443],[-0.04351851851851852],[1],[0],[0],[2.34961239999393],[],[],[],[],[],[],0,0,0,0,4,0,4,0,16.623761299997568,,,,,,,,,,,,16.608148199971765,16.623761299997568,0.0002297000028192997,16.623761299997568,16.82381929998519,18.60733089997666,18.60733089997666,18.60733089997666,18.624248699983582,18.958564799977466,2,task,0.34961239999393,[-0.14444444444444443],[-0.04351851851851852],[1],[0],[0],[2.34961239999393],18.95896379998885,18.97418939997442,0.00023880001390352845,19.273791100014932,20.55787819996476,[],[],[],[],[],[],338801,001,2025-01-28_11h28.09.343,Foreperiod_task,2024.2.1post4,60.007909046748985,2025-01-28 11h28.15.068366 -0800,
5,0,5,[-0.14907407407407408],[-0.044444444444444446],[1],[0],[0],[2.2832673999946564],[],[],[],[],[],[],0,0,0,0,5,0,5,0,20.573784700012766,,,,,,,,,,,,20.55820390000008,20.573784700012766,0.0002494999789632857,20.573784700012766,20.773763999983203,22.557233900006395,22.557233900006395,22.557233900006395,22.573793300020043,22.84222419996513,2,task,0.28326739999465644,[-0.14907407407407408],[-0.044444444444444446],[1],[0],[0],[2.2832673999946564],22.842573300004005,22.85707620001631,0.00021649996051564813,23.15744249999989,24.241425900021568,[],[],[],[],[],[],338801,001,2025-01-28_11h28.09.343,Foreperiod_task,2024.2.1post4,60.007909046748985,2025-01-28 11h28.15.068366 -0800,
6,0,6,[-0.15648148148148147],[-0.040740740740740744],[1],[0],[0],[2.432461799995508],[],[],[],[],[],[],0,0,0,0,6,0,6,0,24.257152599981055,,,,,,,,,,,,24.2417028999771,24.257152599981055,0.00020840001525357366,24.257152599981055,24.45699350000359,26.256869699980598,26.256869699980598,26.256869699980598,26.273558599990793,26.674779299995862,2,task,0.43246179999550804,[-0.15648148148148147],[-0.040740740740740744],[1],[0],[0],[2.432461799995508],26.675084099988453,26.69028330000583,0.00018879998242482543,26.99030689999927,28.224270700011402,[],[],[],[],[],[],338801,001,2025-01-28_11h28.09.343,Foreperiod_task,2024.2.1post4,60.007909046748985,2025-01-28 11h28.15.068366 -0800,
7,0,7,[-0.1685185185185185],[-0.04537037037037037],[1],[0],[0],[2.2665154000278562],[],[],[],[],[],[],0,0,0,0,7,0,7,0,28.240266599983443,,,,,,,,,,,,28.224604699993506,28.240266599983443,0.0002658999874256551,28.240266599983443,28.439783599984366,30.22364879999077,30.22364879999077,30.22364879999077,30.240334399975836,30.49169559997972,2,task,0.26651540002785623,[-0.1685185185185185],[-0.04537037037037037],[1],[0],[0],[2.2665154000278562],30.491984899970703,30.507023099984508,0.00019869999960064888,30.80726789997425,31.89087040000595,[],[],[],[],[],[],338801,001,2025-01-28_11h28.09.343,Foreperiod_task,2024.2.1post4,60.007909046748985,2025-01-28 11h28.15.068366 -0800,
8,0,8,[-0.16944444444444445],[-0.04351851851851852],[1],[0],[0],[2.2500709000159986],[],[],[],[],[],[],0,0,0,0,8,0,8,0,31.907035599986557,,,,,,,,,,,,31.891152399999555,31.907035599986557,0.0002183000324293971,31.907035599986557,32.10693289997289,33.8905866999994,33.8905866999994,33.8905866999994,33.907124000019394,34.141854399989825,2,task,0.25007090001599863,[-0.16944444444444445],[-0.04351851851851852],[1],[0],[0],[2.2500709000159986],34.14218829997117,34.15695859998232,0.00019839999731630087,34.456937699986156,35.69166630000109,[],[],[],[],[],[],338801,001,2025-01-28_11h28.09.343,Foreperiod_task,2024.2.1post4,60.007909046748985,2025-01-28 11h28.15.068366 -0800,
9,0,9,[-0.1712962962962963],[-0.04537037037037037],[1],[0],[0],[2.2822805999894626],[],[],[],[],[],[],0,0,0,0,9,0,9,0,35.707141599967144,,,,,,,,,,,,35.692076899984386,35.707141599967144,0.0003168000257574022,35.707141599967144,35.90699390001828,37.70700709999073,37.70700709999073,37.70700709999073,37.723668100021314,37.97509929997614,2,task,0.28228059998946264,[-0.1712962962962963],[-0.04537037037037037],[1],[0],[0],[2.2822805999894626],37.97547040000791,37.99029079999309,0.00023509998572990298,38.29032209998695,39.1744725999888,[],[],[],[],[],[],338801,001,2025-01-28_11h28.09.343,Foreperiod_task,2024.2.1post4,60.007909046748985,2025-01-28 11h28.15.068366 -0800,
10,0,10,[-0.1712962962962963],[-0.04537037037037037],[1],[0],[0],[2.3331859999452718],[],[],[],[],[],[],0,0,0,0,10,0,10,0,39.19042300002184,,,,,,,,,,,,39.174761899979785,39.19042300002184,0.00022410001838579774,39.19042300002184,39.390311800001655,41.173866499972064,41.173866499972064,41.173866499972064,41.19032619998325,41.50890030001756,2,task,0.33318599994527176,[-0.1712962962962963],[-0.04537037037037037],[1],[0],[0],[2.3331859999452718],41.50940629997058,41.523827800003346,0.0003597000031732023,41.82369930000277,42.94107800000347,[],[],[],[],[],[],338801,001,2025-01-28_11h28.09.343,Foreperiod_task,2024.2.1post4,60.007909046748985,2025-01-28 11h28.15.068366 -0800,
11,0,11,[-0.1712962962962963],[-0.04537037037037037],[1],[0],[0],[2.3166183999856003],[],[],[],[],[],[],0,0,0,0,11,0,11,0,42.956959299976006,,,,,,,,,,,,42.94137439999031,42.956959299976006,0.0002136999974027276,42.956959299976006,43.15701229998376,44.94043119996786,44.94043119996786,44.94043119996786,44.9579117000103,45.25880959996721,2,task,0.31661839998560026,[-0.1712962962962963],[-0.04537037037037037],[1],[0],[0],[2.3166183999856003],45.25924980000127,45.273830999969505,0.0002937999670393765,45.573856899980456,46.908174799988046,[],[],[],[],[],[],338801,001,2025-01-28_11h28.09.343,Foreperiod_task,2024.2.1post4,60.007909046748985,2025-01-28 11h28.15.068366 -0800,
12,0,12,[-0.1712962962962963],[-0.044444444444444446],[1],[0],[0],[2.266354700026568],[],[],[],[],[],[],0,0,0,0,12,0,12,0,46.92364459997043,,,,,,,,,,,,46.908497700002044,46.92364459997043,0.00024580000899732113,46.92364459997043,47.124248299980536,48.923874699976295,48.923874699976295,48.923874699976295,48.94038769998588,49.175665399990976,2,task,0.266354700026568,[-0.1712962962962963],[-0.044444444444444446],[1],[0],[0],[2.266354700026568],49.176057900011074,49.19043660000898,0.00024390005273744464,49.490265399974305,50.47485170001164,[],[],[],[],[],[],338801,001,2025-01-28_11h28.09.343,Foreperiod_task,2024.2.1post4,60.007909046748985,2025-01-28 11h28.15.068366 -0800,
13,0,13,[-0.18425925925925926],[-0.05185185185185185],[1],[0],[0],[2.3493415999691933],[],[],[],[],[],[],0,0,0,0,13,0,13,0,50.49031019996619,,,,,,,,,,,,50.47518989996752,50.49031019996619,0.00027329998556524515,50.49031019996619,50.69048980000662,52.49055779998889,52.49055779998889,52.49055779998889,52.506726999999955,52.8253988000215,2,task,0.34934159996919334,[-0.18425925925925926],[-0.05185185185185185],[1],[0],[0],[2.3493415999691933],52.82591100002173,52.84057539998321,0.0003704000264406204,53.14043149998179,54.30832010001177,[],[],[],[],[],[],338801,001,2025-01-28_11h28.09.343,Foreperiod_task,2024.2.1post4,60.007909046748985,2025-01-28 11h28.15.068366 -0800,
14,0,14,[-0.18796296296296297],[-0.05925925925925926],[1],[0],[0],[2.3164125999901444],[],[],[],[],[],[],0,0,0,0,14,0,14,0,54.323701999965124,,,,,,,,,,,,54.30860869999742,54.323701999965124,0.00021180004114285111,54.323701999965124,54.523718899989035,56.32376180001302,56.32376180001302,56.32376180001302,56.34048780001467,56.625851100019645,2,task,0.31641259999014437,[-0.18796296296296297],[-0.05925925925925926],[1],[0],[0],[2.3164125999901444],56.62633990001632,56.640517799998634,0.00032950000604614615,56.94110300001921,58.04155189997982,[],[],[],[],[],[],338801,001,2025-01-28_11h28.09.343,Foreperiod_task,2024.2.1post4,60.007909046748985,2025-01-28 11h28.15.068366 -0800,
15,0,15,[-0.17222222222222222],[-0.040740740740740744],[1],[0],[0],[2.266335699998308],[],[],[],[],[],[],0,0,0,0,15,0,15,0,58.05710699997144,,,,,,,,,,,,58.0418389000115,58.05710699997144,0.00021999998716637492,58.05710699997144,58.25721529999282,60.05711519997567,60.05711519997567,60.05711519997567,60.073782499996014,60.3090565999737,2,task,0.266335699998308,[-0.17222222222222222],[-0.040740740740740744],[1],[0],[0],[2.266335699998308],60.30961489997571,60.32394089997979,0.00039140001172199845,60.62379699997837,61.95769150002161,[],[],[],[],[],[],338801,001,2025-01-28_11h28.09.343,Foreperiod_task,2024.2.1post4,60.007909046748985,2025-01-28 11h28.15.068366 -0800,
16,0,16,[-0.17777777777777778],[-0.03796296296296296],[1],[0],[0],[2.349874000006821],[],[],[],[],[],[],0,0,0,0,16,0,16,0,61.97388070001034,,,,,,,,,,,,61.958056000003126,61.97388070001034,0.00028199999360367656,61.97388070001034,62.173736199969426,63.9571394000086,63.9571394000086,63.9571394000086,63.9737684999709,64.30877990002045,2,task,0.349874000006821,[-0.17777777777777778],[-0.03796296296296296],[1],[0],[0],[2.349874000006821],64.30930199997965,64.32371440000134,0.00038670003414154053,64.62385440000799,65.89126319997013,[],[],[],[],[],[],338801,001,2025-01-28_11h28.09.343,Foreperiod_task,2024.2.1post4,60.007909046748985,2025-01-28 11h28.15.068366 -0800,
17,0,17,[-0.17962962962962964],[-0.03796296296296296],[1],[0],[0],[3.282972000015434],[],[],[],[],[],[],0,0,0,0,17,0,17,0,65.9071971999947,,,,,,,,,,,,65.89159640000435,65.9071971999947,0.0002533000078983605,65.9071971999947,66.10703139996622,67.907426699996,67.907426699996,67.907426699996,67.92394950002199,69.17530549998628,2,task,1.2829720000154339,[-0.17962962962962964],[-0.03796296296296296],[1],[0],[0],[3.282972000015434],69.17577079997864,69.19052950001787,0.00034629995934665203,69.4903252000222,70.72506640001666,[],[],[],[],[],[],338801,001,2025-01-28_11h28.09.343,Foreperiod_task,2024.2.1post4,60.007909046748985,2025-01-28 11h28.15.068366 -0800,
18,0,18,[-0.17962962962962964],[-0.03611111111111111],[1],[0],[0],[2.4161529000266455],[],[],[],[],[],[],0,0,0,0,18,0,18,0,70.74048520001816,,,,,,,,,,,,70.72538060002262,70.74048520001816,0.00023479998344555497,70.74048520001816,70.94041179999476,72.74047959997552,72.74047959997552,72.74047959997552,72.75710069999332,73.1423356999876,2,task,0.4161529000266455,[-0.17962962962962964],[-0.03611111111111111],[1],[0],[0],[2.4161529000266455],73.14280199998757,73.15714919997845,0.0003299000090919435,73.45711459999438,74.40784890000941,[],[],[],[],[],[],338801,001,2025-01-28_11h28.09.343,Foreperiod_task,2024.2.1post4,60.007909046748985,2025-01-28 11h28.15.068366 -0800,
19,0,19,[-0.15555555555555556],[-0.025925925925925925],[1],[0],[0],[2.333313899987843],[],[],[],[],[],[],0,0,0,0,19,0,19,0,74.42376069998136,,,,,,,,,,,,74.40815560001647,74.42376069998136,0.00023150001652538776,74.42376069998136,74.62386849999893,76.40708259999519,76.40708259999519,76.40708259999519,76.42392989998916,76.74228110001422,2,task,0.3333138999878429,[-0.15555555555555556],[-0.025925925925925925],[1],[0],[0],[2.333313899987843],76.74283609999111,76.7571494000149,0.00039249996189028025,77.05719269998372,78.10778610000852,[],[],[],[],[],[],338801,001,2025-01-28_11h28.09.343,Foreperiod_task,2024.2.1post4,60.007909046748985,2025-01-28 11h28.15.068366 -0800,
20,0,20,,,,,,,,,,,,,,,,,20,0,20,0,78.12419629999204,,,,,,,,,,,,78.1080823999946,78.12419629999204,0.0002243000199086964,78.12419629999204,78.32371299999068,80.10713359998772,80.10713359998772,80.10713359998772,80.12378339999123,80.59225149999838,2,task,0.48331250000046566,[-0.1537037037037037],[-0.025925925925925925],[1],[0],[0],[2.4833125000004657],80.59282540000277,80.60717899998417,0.00039000000106170774,80.90725559997372,,,,,,,,,,,,,,,
