thisN,thisTrialN,thisRepN,mouse.x,mouse.y,mouse.leftButton,mouse.midButton,mouse.rightButton,mouse.time,Intertrial_Mouse.x,Intertrial_Mouse.y,Intertrial_Mouse.leftButton,Intertrial_Mouse.midButton,Intertrial_Mouse.rightButton,Intertrial_Mouse.time,key_resp_5.keys,key_resp_5.rt,key_resp_5.duration,trials_3.thisRepN,trials_3.thisTrialN,trials_3.thisN,trials_3.thisIndex,trials_2.thisRepN,trials_2.thisTrialN,trials_2.thisN,trials_2.thisIndex,thisRow.t,notes,Welcome_Screen.started,Welcome_Text.started,mouse_2.started,Welcome_Screen.stopped,mouse_2.x,mouse_2.y,mouse_2.leftButton,mouse_2.midButton,mouse_2.rightButton,mouse_2.time,Trial_2.started,PLUS_FP.started,mouse.started,Photodiode_plus.started,Photodiode_plus.stopped,PLUS_FP.stopped,polygon.started,Photodiode_polygon.started,Photodiode_polygon.stopped,Trial_2.stopped,FixDur,Type,RT,trials_2.mouse.x,trials_2.mouse.y,trials_2.mouse.leftButton,trials_2.mouse.midButton,trials_2.mouse.rightButton,trials_2.mouse.time,Intertrial_Period.started,Photodiode_2.started,Intertrial_Mouse.started,Photodiode_2.stopped,Intertrial_Period.stopped,trials_2.Intertrial_Mouse.x,trials_2.Intertrial_Mouse.y,trials_2.Intertrial_Mouse.leftButton,trials_2.Intertrial_Mouse.midButton,trials_2.Intertrial_Mouse.rightButton,trials_2.Intertrial_Mouse.time,text.started,BREAK.started,key_resp_5.started,text_3.started,BREAK.stopped,trials_3.key_resp_5.keys,trials_3.key_resp_5.rt,trials_3.key_resp_5.duration,text.stopped,participant,session,date,expName,psychopyVersion,frameRate,expStart,
,,,,,,,,,,,,,,,,,,,,,,,,,,,,0.0032787001691758633,0.009084300138056278,0.0031147999688982964,14.111852400004864,[-0.1638888888888889],[0.20185185185185187],[1],[0],[0],[14.107863399665803],,,,,,,,,,,,,,,,,,,,,,,,,,,,,,,,,,,,,,,,461212,001,2025-02-28_09h50.10.880,Foreperiod_task,2024.2.1post4,60.14697511920976,2025-02-28 09h50.31.669052 -0800,
0,0,0,[-0.21666666666666667],[0.22407407407407406],[1],[0],[0],[3.5804836000315845],[],[],[],[],[],[],,,,0,0,0,0,0,0,0,0,14.126538900192827,,,,,,,,,,,,14.113474300131202,14.126538900192827,0.0014928998425602913,14.126538900192827,14.326693099923432,14.626487200148404,14.626487200148404,14.626487200148404,14.643564799800515,17.69459930015728,0.5,task,3.0804836000315845,[-0.21666666666666667],[0.22407407407407406],[1],[0],[0],[3.5804836000315845],17.694970900192857,17.71007760008797,0.0002684001810848713,18.010051200166345,19.34408830013126,[],[],[],[],[],[],,,,,,,,,,461212,001,2025-02-28_09h50.10.880,Foreperiod_task,2024.2.1post4,60.14697511920976,2025-02-28 09h50.31.669052 -0800,
1,0,1,[-0.21666666666666667],[0.22407407407407406],[1],[0],[0],[1.299547600094229],[],[],[],[],[],[],,,,0,0,0,0,1,0,1,0,19.360116600058973,,,,,,,,,,,,19.34439679980278,19.360116600058973,0.00024359999224543571,19.360116600058973,19.56009089993313,20.3771576997824,20.3771576997824,20.3771576997824,20.393583599943668,20.64453379996121,1.0294195442116956,task,0.2701280558825334,[-0.21666666666666667],[0.22407407407407406],[1],[0],[0],[1.299547600094229],20.644809499848634,20.659924100153148,0.0001721000298857689,20.960028700064868,22.093508299905807,[],[],[],[],[],[],,,,,,,,,,461212,001,2025-02-28_09h50.10.880,Foreperiod_task,2024.2.1post4,60.14697511920976,2025-02-28 09h50.31.669052 -0800,
2,0,2,[-0.21666666666666667],[0.22407407407407406],[1],[0],[0],[2.2511423998512328],[],[],[],[],[],[],,,,0,0,0,0,2,0,2,0,22.109825199935585,,,,,,,,,,,,22.09365230007097,22.109825199935585,0.00011350028216838837,22.109825199935585,22.31008750014007,24.0932725998573,24.0932725998573,24.0932725998573,24.10993740009144,24.34552579978481,2,task,0.25114239985123277,[-0.21666666666666667],[0.22407407407407406],[1],[0],[0],[2.2511423998512328],24.345952199772,24.360096300020814,0.00026899995282292366,24.65959439985454,25.560739799868315,[],[],[],[],[],[],,,,,,,,,,461212,001,2025-02-28_09h50.10.880,Foreperiod_task,2024.2.1post4,60.14697511920976,2025-02-28 09h50.31.669052 -0800,
3,0,3,[-0.2175925925925926],[0.225],[1],[0],[0],[0.8326272000558674],[],[],[],[],[],[],,,,0,0,0,0,3,0,3,0,25.576722799800336,,,,,,,,,,,,25.561061200220138,25.576722799800336,0.00024739978834986687,25.576722799800336,25.77679690020159,26.059500600211322,26.059500600211322,26.059500600211322,26.07669960008934,26.3943528002128,0.5,task,0.33262720005586743,[-0.2175925925925926],[0.225],[1],[0],[0],[0.8326272000558674],26.394712099805474,26.409810999874026,0.00024529965594410896,26.710680900141597,28.06140370015055,[],[],[],[],[],[],,,,,,,,,,461212,001,2025-02-28_09h50.10.880,Foreperiod_task,2024.2.1post4,60.14697511920976,2025-02-28 09h50.31.669052 -0800,
4,0,4,[-0.2175925925925926],[0.225],[1],[0],[0],[0.9156415001489222],[],[],[],[],[],[],,,,0,0,0,0,4,0,4,0,28.077038299757987,,,,,,,,,,,,28.06175300013274,28.077038299757987,0.0002649002708494663,28.077038299757987,28.276860000099987,,,,,28.97845789976418,2,task,-1.0843584998510778,[-0.2175925925925926],[0.225],[1],[0],[0],[0.9156415001489222],28.97902170009911,28.992327900137752,0.0003125998191535473,29.293779800180346,30.644462899770588,[],[],[],[],[],[],28.992327900137752,,,,,,,,,461212,001,2025-02-28_09h50.10.880,Foreperiod_task,2024.2.1post4,60.14697511920976,2025-02-28 09h50.31.669052 -0800,
5,0,5,[-0.2175925925925926],[0.225],[1],[0],[0],[1.3828786998055875],[],[],[],[],[],[],,,,0,0,0,0,5,0,5,0,30.660260899923742,,,,,,,,,,,,30.644783599767834,30.660260899923742,0.00024429988116025925,30.660260899923742,30.860127800144255,,,,,32.02856280002743,2,task,-0.6171213001944125,[-0.2175925925925926],[0.225],[1],[0],[0],[1.3828786998055875],32.029047599993646,32.04345540003851,0.00034380005672574043,32.34336470020935,33.660988399758935,[],[],[],[],[],[],32.04345540003851,,,,,,,,,461212,001,2025-02-28_09h50.10.880,Foreperiod_task,2024.2.1post4,60.14697511920976,2025-02-28 09h50.31.669052 -0800,
6,0,6,[-0.2175925925925926],[0.225],[1],[0],[0],[2.4660867997445166],[],[],[],[],[],[],,,,0,0,0,0,6,0,6,0,33.67669470002875,,,,,,,,,,,,33.66131639992818,33.67669470002875,0.0002477997913956642,33.67669470002875,33.876659399829805,35.67664510011673,35.67664510011673,35.67664510011673,35.693545000161976,36.128064800053835,2,task,0.4660867997445166,[-0.2175925925925926],[0.225],[1],[0],[0],[2.4660867997445166],36.12841909984127,36.1428863001056,0.0002373000606894493,36.44349159998819,37.44416239997372,[],[],[],[],[],[],,,,,,,,,,461212,001,2025-02-28_09h50.10.880,Foreperiod_task,2024.2.1post4,60.14697511920976,2025-02-28 09h50.31.669052 -0800,
7,0,7,[-0.2175925925925926],[0.225],[1],[0],[0],[2.2495543002150953],[],[],[],[],[],[],,,,0,0,0,0,7,0,7,0,37.460081099998206,,,,,,,,,,,,37.44449870008975,37.460081099998206,0.0002611996605992317,37.460081099998206,37.659964699763805,39.443459399975836,39.443459399975836,39.443459399975836,39.46011469978839,39.69477709988132,2,task,0.24955430021509528,[-0.2175925925925926],[0.225],[1],[0],[0],[2.2495543002150953],39.69513309979811,39.71015950012952,0.00022500008344650269,40.01010609976947,40.894200399983674,[],[],[],[],[],[],,,,,,,,,,461212,001,2025-02-28_09h50.10.880,Foreperiod_task,2024.2.1post4,60.14697511920976,2025-02-28 09h50.31.669052 -0800,
8,0,8,[-0.2175925925925926],[0.225],[1],[0],[0],[0.8666429999284446],[],[],[],[],[],[],,,,0,0,0,0,8,0,8,0,40.91018190002069,,,,,,,,,,,,40.89432159997523,40.91018190002069,8.729984983801842e-05,40.91018190002069,41.10962300002575,41.393486300017685,41.393486300017685,41.393486300017685,41.410063500050455,41.761552799958736,0.5,task,0.3666429999284446,[-0.2175925925925926],[0.225],[1],[0],[0],[0.8666429999284446],41.76189590012655,41.77690819976851,0.0002172999083995819,42.076805300079286,43.344209199771285,[],[],[],[],[],[],,,,,,,,,,461212,001,2025-02-28_09h50.10.880,Foreperiod_task,2024.2.1post4,60.14697511920976,2025-02-28 09h50.31.669052 -0800,
9,0,9,[-0.2175925925925926],[0.225],[1],[0],[0],[2.316360500175506],[],[],[],[],[],[],,,,0,0,0,0,9,0,9,0,43.36015840014443,,,,,,,,,,,,43.344526399858296,43.36015840014443,0.00024370010942220688,43.36015840014443,43.56007449980825,45.34347049985081,45.34347049985081,45.34347049985081,45.36012450000271,45.66164600010961,2,task,0.3163605001755059,[-0.2175925925925926],[0.225],[1],[0],[0],[2.316360500175506],45.66203110013157,45.676839699968696,0.00025299983099102974,45.976841900032014,47.01100810011849,[],[],[],[],[],[],,,,,,,,,,461212,001,2025-02-28_09h50.10.880,Foreperiod_task,2024.2.1post4,60.14697511920976,2025-02-28 09h50.31.669052 -0800,
10,0,10,[-0.2175925925925926],[0.225],[1],[0],[0],[0.8992194999009371],[],[],[],[],[],[],,,,0,0,0,0,10,0,10,0,47.02721219975501,,,,,,,,,,,,47.0113854999654,47.02721219975501,0.0003029000945389271,47.02721219975501,47.2273202999495,47.51018099999055,47.51018099999055,47.51018099999055,47.52686659991741,47.91126979980618,0.5,task,0.3992194999009371,[-0.2175925925925926],[0.225],[1],[0],[0],[0.8992194999009371],47.91160580003634,47.926583599764854,0.00023300014436244965,48.22673140000552,49.12774810008705,[],[],[],[],[],[],,,,,,,,,,461212,001,2025-02-28_09h50.10.880,Foreperiod_task,2024.2.1post4,60.14697511920976,2025-02-28 09h50.31.669052 -0800,
11,0,11,[-0.2175925925925926],[0.225],[1],[0],[0],[2.316428800113499],[],[],[],[],[],[],,,,0,0,0,0,11,0,11,0,49.14329370018095,,,,,,,,,,,,49.12789889983833,49.14329370018095,0.00011020014062523842,49.14329370018095,49.34378860006109,51.14352490007877,51.14352490007877,51.14352490007877,51.159801399800926,51.44508680002764,2,task,0.31642880011349916,[-0.2175925925925926],[0.225],[1],[0],[0],[2.316428800113499],51.445492499973625,51.46066140010953,0.0002560000866651535,51.760094000026584,52.8607807001099,[],[],[],[],[],[],,,,,,,,,,461212,001,2025-02-28_09h50.10.880,Foreperiod_task,2024.2.1post4,60.14697511920976,2025-02-28 09h50.31.669052 -0800,
12,0,12,[-0.2175925925925926],[0.225],[1],[0],[0],[0.8494405001401901],[],[],[],[],[],[],,,,0,0,0,0,12,0,12,0,52.8767801001668,,,,,,,,,,,,52.86106949998066,52.8767801001668,0.00022479984909296036,52.8767801001668,53.07677680021152,53.37609639996663,53.37609639996663,53.37609639996663,53.39268589997664,53.71124269999564,0.5,task,0.3494405001401901,[-0.2175925925925926],[0.225],[1],[0],[0],[0.8494405001401901],53.7118501001969,53.726650999858975,0.0004703998565673828,54.0263113998808,55.17742050020024,[],[],[],[],[],[],,,,,,,,,,461212,001,2025-02-28_09h50.10.880,Foreperiod_task,2024.2.1post4,60.14697511920976,2025-02-28 09h50.31.669052 -0800,
13,0,13,[-0.2175925925925926],[0.225],[1],[0],[0],[2.283073500264436],[],[],[],[],[],[],,,,0,0,0,0,13,0,13,0,55.19328049989417,,,,,,,,,,,,55.17782530002296,55.19328049989417,0.00024739978834986687,55.19328049989417,55.39317509997636,57.193530099932104,57.193530099932104,57.193530099932104,57.210175300017,57.46168870013207,2,task,0.283073500264436,[-0.2175925925925926],[0.225],[1],[0],[0],[2.283073500264436],57.462223399896175,57.476873099803925,0.000403599813580513,57.77683789981529,59.09437689976767,[],[],[],[],[],[],,,,,,,,,,461212,001,2025-02-28_09h50.10.880,Foreperiod_task,2024.2.1post4,60.14697511920976,2025-02-28 09h50.31.669052 -0800,
14,0,14,[-0.2175925925925926],[0.225],[1],[0],[0],[2.2824214003048837],[],[],[],[],[],[],,,,0,0,0,0,14,0,14,0,59.11007340019569,,,,,,,,,,,,59.094677600078285,59.11007340019569,0.00023010000586509705,59.11007340019569,59.31022269977257,61.09357019979507,61.09357019979507,61.09357019979507,61.11014259979129,61.37781920004636,2,task,0.2824214003048837,[-0.2175925925925926],[0.225],[1],[0],[0],[2.2824214003048837],61.37827609991655,61.39349769987166,0.0003223000094294548,61.69343539979309,62.694243399892,[],[],[],[],[],[],,,,,,,,,,461212,001,2025-02-28_09h50.10.880,Foreperiod_task,2024.2.1post4,60.14697511920976,2025-02-28 09h50.31.669052 -0800,
15,0,15,[-0.2175925925925926],[0.225],[1],[0],[0],[2.3329566000029445],[],[],[],[],[],[],,,,0,0,0,0,15,0,15,0,62.71017410000786,,,,,,,,,,,,62.694555500056595,62.71017410000786,0.0002383999526500702,62.71017410000786,62.9102070000954,64.69346529990435,64.69346529990435,64.69346529990435,64.71026680013165,65.0285140001215,2,task,0.33295660000294447,[-0.2175925925925926],[0.225],[1],[0],[0],[2.3329566000029445],65.02896679984406,65.04345919983461,0.0003432999365031719,65.3437055000104,66.29356440017,[],[],[],[],[],[],,,,,,,,,,461212,001,2025-02-28_09h50.10.880,Foreperiod_task,2024.2.1post4,60.14697511920976,2025-02-28 09h50.31.669052 -0800,
16,0,16,[-0.2175925925925926],[0.225],[1],[0],[0],[0.8836400001309812],[],[],[],[],[],[],,,,0,0,0,0,16,0,16,0,66.31024410016835,,,,,,,,,,,,66.29381699999794,66.31024410016835,0.00019490020349621773,66.31024410016835,66.51072379993275,66.79354720003903,66.79354720003903,66.79354720003903,66.81017109984532,67.17811470013112,0.5,task,0.3836400001309812,[-0.2175925925925926],[0.225],[1],[0],[0],[0.8836400001309812],67.17852699989453,67.19291910016909,0.00028330041095614433,67.49340690020472,68.52763140015304,[],[],[],[],[],[],,,,,,,,,,461212,001,2025-02-28_09h50.10.880,Foreperiod_task,2024.2.1post4,60.14697511920976,2025-02-28 09h50.31.669052 -0800,
17,0,17,[-0.2175925925925926],[0.225],[1],[0],[0],[2.2831347002647817],[],[],[],[],[],[],,,,0,0,0,0,17,0,17,0,68.54349360009655,,,,,,,,,,,,68.52795629994944,68.54349360009655,0.00024820026010274887,68.54349360009655,68.74347010022029,70.52683009998873,70.52683009998873,70.52683009998873,70.54359269980341,70.81192630017176,2,task,0.2831347002647817,[-0.2175925925925926],[0.225],[1],[0],[0],[2.2831347002647817],70.81244480004534,70.82702419999987,0.0003682998940348625,71.12679720018059,72.27723859995604,[],[],[],[],[],[],,,,,,,,,,461212,001,2025-02-28_09h50.10.880,Foreperiod_task,2024.2.1post4,60.14697511920976,2025-02-28 09h50.31.669052 -0800,
18,0,18,[-0.2175925925925926],[0.225],[1],[0],[0],[0.8002514000982046],[],[],[],[],[],[],,,,0,0,0,0,18,0,18,0,72.29344080016017,,,,,,,,,,,,72.27747480012476,72.29344080016017,0.00017850007861852646,72.29344080016017,72.49343550018966,72.7768481997773,72.7768481997773,72.7768481997773,72.79351009987295,73.07846509991214,0.5,task,0.3002514000982046,[-0.2175925925925926],[0.225],[1],[0],[0],[0.8002514000982046],73.0789391999133,73.0936691001989,0.000336300116032362,73.39372950000688,74.39445130014792,[],[],[],[],[],[],,,,,,,,,,461212,001,2025-02-28_09h50.10.880,Foreperiod_task,2024.2.1post4,60.14697511920976,2025-02-28 09h50.31.669052 -0800,
19,0,19,[-0.2175925925925926],[0.225],[1],[0],[0],[2.2659942000173032],[],[],[],[],[],[],,,,0,0,0,0,19,0,19,0,74.41040970012546,,,,,,,,,,,,74.39478710014373,74.41040970012546,0.00025559961795806885,74.41040970012546,74.6101186000742,76.39369879988953,76.39369879988953,76.39369879988953,76.41014670021832,76.66158269997686,2,task,0.26599420001730323,[-0.2175925925925926],[0.225],[1],[0],[0],[2.2659942000173032],76.66206770017743,76.67686739983037,0.0003418000414967537,76.97682440001518,77.9941841000691,[],[],[],[],[],[],,,,,,,,,,461212,001,2025-02-28_09h50.10.880,Foreperiod_task,2024.2.1post4,60.14697511920976,2025-02-28 09h50.31.669052 -0800,
20,0,20,[-0.2175925925925926],[0.225],[1],[0],[0],[0.8163924999535084],[],[],[],[],[],[],,,,0,0,0,0,20,0,20,0,78.01014079991728,,,,,,,,,,,,77.99449060019106,78.01014079991728,0.00023399991914629936,78.01014079991728,78.21015959978104,78.49337889999151,78.49337889999151,78.49337889999151,78.51010379986838,78.81170250009745,0.5,task,0.3163924999535084,[-0.2175925925925926],[0.225],[1],[0],[0],[0.8163924999535084],78.81221969984472,78.82672569993883,0.0003708996810019016,79.12684709997848,80.26103790011257,[],[],[],[],[],[],,,,,,,,,,461212,001,2025-02-28_09h50.10.880,Foreperiod_task,2024.2.1post4,60.14697511920976,2025-02-28 09h50.31.669052 -0800,
21,0,21,[-0.2175925925925926],[0.225],[1],[0],[0],[2.2989312997087836],[],[],[],[],[],[],,,,0,0,0,0,21,0,21,0,80.27694249991328,,,,,,,,,,,,80.2615820998326,80.27694249991328,0.0004672999493777752,80.27694249991328,80.4768464001827,82.2768807997927,82.2768807997927,82.2768807997927,82.29353650007397,82.56146770017222,2,task,0.2989312997087836,[-0.2175925925925926],[0.225],[1],[0],[0],[2.2989312997087836],82.56204169988632,82.57694579986855,0.00039590010419487953,82.87690280005336,84.24434129986912,[],[],[],[],[],[],,,,,,,,,,461212,001,2025-02-28_09h50.10.880,Foreperiod_task,2024.2.1post4,60.14697511920976,2025-02-28 09h50.31.669052 -0800,
22,0,22,[-0.2175925925925926],[0.225],[1],[0],[0],[2.2497657998465],[],[],[],[],[],[],,,,0,0,0,0,22,0,22,0,84.26036129985005,,,,,,,,,,,,84.2446423000656,84.26036129985005,0.00022900011390447617,84.26036129985005,84.46015249984339,86.24365419987589,86.24365419987589,86.24365419987589,86.26028050016612,86.4952295999974,2,task,0.24976579984650016,[-0.2175925925925926],[0.225],[1],[0],[0],[2.2497657998465],86.49566659983248,86.51044260011986,0.00030429987236857414,86.81015910021961,87.71090709976852,[],[],[],[],[],[],,,,,,,,,,461212,001,2025-02-28_09h50.10.880,Foreperiod_task,2024.2.1post4,60.14697511920976,2025-02-28 09h50.31.669052 -0800,
23,0,23,[-0.2175925925925926],[0.225],[1],[0],[0],[0.8664941997267306],[],[],[],[],[],[],,,,0,0,0,0,23,0,23,0,87.72677849978209,,,,,,,,,,,,87.71123840007931,87.72677849978209,0.00025849975645542145,87.72677849978209,87.92678429977968,88.21028110012412,88.21028110012412,88.21028110012412,88.22678680019453,88.57884240010753,0.5,task,0.3664941997267306,[-0.2175925925925926],[0.225],[1],[0],[0],[0.8664941997267306],88.5793082001619,88.59366969997063,0.00027860002592206,88.89352979976684,89.84418989997357,[],[],[],[],[],[],,,,,,,,,,461212,001,2025-02-28_09h50.10.880,Foreperiod_task,2024.2.1post4,60.14697511920976,2025-02-28 09h50.31.669052 -0800,
24,0,24,[-0.2175925925925926],[0.225],[1],[0],[0],[1.0815870999358594],[],[],[],[],[],[],,,,0,0,0,0,24,0,24,0,89.86017559980974,,,,,,,,,,,,89.84452569996938,89.86017559980974,0.0002880999818444252,89.86017559980974,90.0594779998064,90.35938270017505,90.35938270017505,90.35938270017505,90.37632239982486,90.92653409997001,0.5,task,0.5815870999358594,[-0.2175925925925926],[0.225],[1],[0],[0],[1.0815870999358594],90.92671649996191,90.94310380006209,0.00012730015441775322,91.24343809997663,92.31074990006164,[],[],[],[],[],[],,,,,,,,,,461212,001,2025-02-28_09h50.10.880,Foreperiod_task,2024.2.1post4,60.14697511920976,2025-02-28 09h50.31.669052 -0800,
25,0,25,[-0.2175925925925926],[0.225],[1],[0],[0],[2.2826402001082897],[],[],[],[],[],[],,,,0,0,0,0,25,0,25,0,92.32675429992378,,,,,,,,,,,,92.31106059998274,92.32675429992378,0.00023610005155205727,92.32675429992378,92.52687120018527,94.31017779977992,94.31017779977992,94.31017779977992,94.32689449982718,94.594318700023,2,task,0.2826402001082897,[-0.2175925925925926],[0.225],[1],[0],[0],[2.2826402001082897],94.59499609982595,94.61015910003334,0.0005724998190999031,94.91023690020666,96.12788259983063,[],[],[],[],[],[],,,,,,,,,,461212,001,2025-02-28_09h50.10.880,Foreperiod_task,2024.2.1post4,60.14697511920976,2025-02-28 09h50.31.669052 -0800,
26,0,26,[-0.2175925925925926],[0.225],[1],[0],[0],[2.315950999967754],[],[],[],[],[],[],,,,0,0,0,0,26,0,26,0,96.14357839990407,,,,,,,,,,,,96.12820979999378,96.14357839990407,0.00025560008361935616,96.14357839990407,96.34348470019177,98.14350580004975,98.14350580004975,98.14350580004975,98.16025539999828,98.44488469976932,2,task,0.3159509999677539,[-0.2175925925925926],[0.225],[1],[0],[0],[2.315950999967754],98.44528590003029,98.46029049996287,0.0002545001916587353,98.76018049987033,99.99425490014255,[],[],[],[],[],[],,,,,,,,,,461212,001,2025-02-28_09h50.10.880,Foreperiod_task,2024.2.1post4,60.14697511920976,2025-02-28 09h50.31.669052 -0800,
27,0,27,[-0.4444444444444444],[-0.11851851851851852],[1],[0],[0],[2.2995457998476923],[],[],[],[],[],[],,,,0,0,0,0,27,0,27,0,100.0105054997839,,,,,,,,,,,,99.99455519998446,100.0105054997839,0.00022690044716000557,100.0105054997839,100.21031349990517,101.9937125002034,101.9937125002034,101.9937125002034,102.01029000012204,102.29474590020254,2,task,0.29954579984769225,[-0.4444444444444444],[-0.11851851851851852],[1],[0],[0],[2.2995457998476923],102.29508950002491,102.31031520012766,0.00022280029952526093,102.61016790010035,103.7102243998088,[],[],[],[],[],[],,,,,,,,,,461212,001,2025-02-28_09h50.10.880,Foreperiod_task,2024.2.1post4,60.14697511920976,2025-02-28 09h50.31.669052 -0800,
28,0,28,[-0.4444444444444444],[-0.11851851851851852],[1],[0],[0],[0.8500892999581993],[],[],[],[],[],[],,,,0,0,0,0,28,0,28,0,103.72606319980696,,,,,,,,,,,,103.71038099983707,103.72606319980696,8.83997417986393e-05,103.72606319980696,103.92690119985491,104.21019819984213,104.21019819984213,104.21019819984213,104.22705210000277,104.56124590011314,0.5,task,0.35008929995819926,[-0.4444444444444444],[-0.11851851851851852],[1],[0],[0],[0.8500892999581993],104.56160529982299,104.57688889978454,0.0002481001429259777,104.8768164999783,105.99434910016134,[],[],[],[],[],[],,,,,,,,,,461212,001,2025-02-28_09h50.10.880,Foreperiod_task,2024.2.1post4,60.14697511920976,2025-02-28 09h50.31.669052 -0800,
29,0,29,[-0.4444444444444444],[-0.11851851851851852],[1],[0],[0],[0.8494782000780106],[],[],[],[],[],[],,,,0,0,0,0,29,0,29,0,106.01023009978235,,,,,,,,,,,,105.9946921998635,106.01023009978235,0.00027120020240545273,106.01023009978235,106.21031810017303,106.51022870000452,106.51022870000452,106.51022870000452,106.52688479982316,106.8449689000845,0.5,task,0.34947820007801056,[-0.4444444444444444],[-0.11851851851851852],[1],[0],[0],[0.8494782000780106],106.84546880004928,106.86020709993318,0.00035319989547133446,107.16023139981553,108.39416899997741,[],[],[],[],[],[],,,,,,,,,,461212,001,2025-02-28_09h50.10.880,Foreperiod_task,2024.2.1post4,60.14697511920976,2025-02-28 09h50.31.669052 -0800,
30,0,30,[-0.4444444444444444],[-0.11851851851851852],[1],[0],[0],[0.799025499727577],[],[],[],[],[],[],,,,0,0,0,0,30,0,30,0,108.41019099997357,,,,,,,,,,,,108.3944685999304,108.41019099997357,0.00023029977455735207,108.41019099997357,108.61033019982278,108.89356449991465,108.89356449991465,108.89356449991465,108.90981050021946,109.19402590021491,0.5,task,0.29902549972757697,[-0.4444444444444444],[-0.11851851851851852],[1],[0],[0],[0.799025499727577],109.19432959984988,109.21018029982224,0.00021689990535378456,109.51015349989757,110.76109899999574,[],[],[],[],[],[],,,,,,,,,,461212,001,2025-02-28_09h50.10.880,Foreperiod_task,2024.2.1post4,60.14697511920976,2025-02-28 09h50.31.669052 -0800,
31,0,31,[-0.4444444444444444],[-0.11851851851851852],[1],[0],[0],[2.316351799760014],[],[],[],[],[],[],,,,0,0,0,0,31,0,31,0,110.7767881997861,,,,,,,,,,,,110.7614255999215,110.7767881997861,0.000241799745708704,110.7767881997861,110.97681999998167,112.7605484998785,112.7605484998785,112.7605484998785,112.77707430021837,113.07862060004845,2,task,0.3163517997600138,[-0.4444444444444444],[-0.11851851851851852],[1],[0],[0],[2.316351799760014],113.07911829976365,113.09369720006362,0.0003202003426849842,113.39351540012285,114.34439620003104,[],[],[],[],[],[],,,,,,,,,,461212,001,2025-02-28_09h50.10.880,Foreperiod_task,2024.2.1post4,60.14697511920976,2025-02-28 09h50.31.669052 -0800,
32,0,32,[-0.4444444444444444],[-0.11851851851851852],[1],[0],[0],[2.283446699846536],[],[],[],[],[],[],,,,0,0,0,0,32,0,32,0,114.36039450019598,,,,,,,,,,,,114.34471279988065,114.36039450019598,0.0002450002357363701,114.36039450019598,114.56023760000244,116.34369250014424,116.34369250014424,116.34369250014424,116.36048169992864,116.62899609981105,2,task,0.2834466998465359,[-0.4444444444444444],[-0.11851851851851852],[1],[0],[0],[2.283446699846536],116.62945730006322,116.64364469982684,0.0002826000563800335,116.94329799991101,117.86133700003847,[],[],[],[],[],[],,,,,,,,,,461212,001,2025-02-28_09h50.10.880,Foreperiod_task,2024.2.1post4,60.14697511920976,2025-02-28 09h50.31.669052 -0800,
33,0,33,[-0.4444444444444444],[-0.11851851851851852],[1],[0],[0],[0.8325217999517918],[],[],[],[],[],[],,,,0,0,0,0,33,0,33,0,117.8770344001241,,,,,,,,,,,,117.86167130013928,117.8770344001241,0.0002581002190709114,117.8770344001241,118.0771189997904,118.36039709998295,118.36039709998295,118.36039709998295,118.3772101001814,118.69486360019073,0.5,task,0.33252179995179176,[-0.4444444444444444],[-0.11851851851851852],[1],[0],[0],[0.8325217999517918],118.69527440005913,118.71039209980518,0.00025749998167157173,119.010398699902,119.94425120018423,[],[],[],[],[],[],,,,,,,,,,461212,001,2025-02-28_09h50.10.880,Foreperiod_task,2024.2.1post4,60.14697511920976,2025-02-28 09h50.31.669052 -0800,
34,0,34,[-0.4444444444444444],[-0.11851851851851852],[1],[0],[0],[2.299792100209743],[],[],[],[],[],[],,,,0,0,0,0,34,0,34,0,119.96021379996091,,,,,,,,,,,,119.94451209995896,119.96021379996091,0.00020499993115663528,119.96021379996091,120.15999880013987,121.94301589997485,121.94301589997485,121.94301589997485,121.96003700001165,122.24505299981683,2,task,0.2997921002097428,[-0.4444444444444444],[-0.11851851851851852],[1],[0],[0],[2.299792100209743],122.24554120004177,122.26032669981942,0.0003562001511454582,122.56041170004755,123.67779139988124,[],[],[],[],[],[],,,,,,,,,,461212,001,2025-02-28_09h50.10.880,Foreperiod_task,2024.2.1post4,60.14697511920976,2025-02-28 09h50.31.669052 -0800,
35,0,35,[-0.4444444444444444],[-0.11851851851851852],[1],[0],[0],[0.7999016996473074],[],[],[],[],[],[],,,,0,0,0,0,35,0,35,0,123.69365009991452,,,,,,,,,,,,123.67811529990286,123.69365009991452,0.0002502002753317356,123.69365009991452,123.89371199999005,124.17705309996381,124.17705309996381,124.17705309996381,124.1930696000345,124.47890930017456,0.5,task,0.2999016996473074,[-0.4444444444444444],[-0.11851851851851852],[1],[0],[0],[0.7999016996473074],124.47933920007199,124.49387930007651,0.0002612997777760029,124.79378340020776,125.91162439994514,[],[],[],[],[],[],,,,,,,,,,461212,001,2025-02-28_09h50.10.880,Foreperiod_task,2024.2.1post4,60.14697511920976,2025-02-28 09h50.31.669052 -0800,
36,0,36,[-0.4444444444444444],[-0.11851851851851852],[1],[0],[0],[0.7657526000402868],[],[],[],[],[],[],,,,0,0,0,0,36,0,36,0,125.9271436999552,,,,,,,,,,,,125.91198450000957,125.9271436999552,0.00027369987219572067,125.9271436999552,126.12700020009652,126.42703799996525,126.42703799996525,126.42703799996525,126.44377630017698,126.6786258998327,0.5,task,0.2657526000402868,[-0.4444444444444444],[-0.11851851851851852],[1],[0],[0],[0.7657526000402868],126.67910150019452,126.69393830001354,0.0003331000916659832,126.99376069987193,128.02784560015425,[],[],[],[],[],[],,,,,,,,,,461212,001,2025-02-28_09h50.10.880,Foreperiod_task,2024.2.1post4,60.14697511920976,2025-02-28 09h50.31.669052 -0800,
37,0,37,[-0.4444444444444444],[-0.11851851851851852],[1],[0],[0],[0.78319470025599],[],[],[],[],[],[],,,,0,0,0,0,37,0,37,0,128.04323429986835,,,,,,,,,,,,128.02821560017765,128.04323429986835,0.00022409996017813683,128.04323429986835,128.24361239979044,128.54379059979692,128.54379059979692,128.54379059979692,128.5604945998639,128.81208689976484,0.5,task,0.28319470025599003,[-0.4444444444444444],[-0.11851851851851852],[1],[0],[0],[0.78319470025599],128.8124154000543,128.8270082999952,0.00019639963284134865,129.1270989999175,130.0276481001638,[],[],[],[],[],[],,,,,,,,,,461212,001,2025-02-28_09h50.10.880,Foreperiod_task,2024.2.1post4,60.14697511920976,2025-02-28 09h50.31.669052 -0800,
38,0,38,[-0.4444444444444444],[-0.11851851851851852],[1],[0],[0],[2.282727599609643],[],[],[],[],[],[],,,,0,0,0,0,38,0,38,0,130.04355019982904,,,,,,,,,,,,130.02801080001518,130.04355019982904,0.00025239959359169006,130.04355019982904,130.24375380016863,132.02743559982628,132.02743559982628,132.02743559982628,132.04377610003576,132.31164490012452,2,task,0.2827275996096432,[-0.4444444444444444],[-0.11851851851851852],[1],[0],[0],[2.282727599609643],132.31210009986535,132.3269810997881,0.0002834000624716282,132.6269455999136,133.54470589989796,[],[],[],[],[],[],,,,,,,,,,461212,001,2025-02-28_09h50.10.880,Foreperiod_task,2024.2.1post4,60.14697511920976,2025-02-28 09h50.31.669052 -0800,
39,0,39,[-0.4444444444444444],[-0.11851851851851852],[1],[0],[0],[0.8161387997679412],[],[],[],[],[],[],,,,0,0,0,0,39,0,39,0,133.5605307999067,,,,,,,,,,,,133.54497219994664,133.5605307999067,0.00020120013505220413,133.5605307999067,133.76022419985384,134.04379840008914,134.04379840008914,134.04379840008914,134.06056960020214,134.3618982997723,0.5,task,0.31613879976794124,[-0.4444444444444444],[-0.11851851851851852],[1],[0],[0],[0.8161387997679412],134.36231809994206,134.3770722001791,0.00027820002287626266,134.6769789000973,135.72771759983152,[],[],[],[],[],[],,,,,,,,,,461212,001,2025-02-28_09h50.10.880,Foreperiod_task,2024.2.1post4,60.14697511920976,2025-02-28 09h50.31.669052 -0800,
40,0,40,[-0.4444444444444444],[-0.11851851851851852],[1],[0],[0],[2.2497312002815306],[],[],[],[],[],[],,,,0,0,0,0,40,0,40,0,135.7437772997655,,,,,,,,,,,,135.72802350018173,135.7437772997655,0.00024079997092485428,135.7437772997655,135.94360300013795,137.7276316997595,137.7276316997595,137.7276316997595,137.7441612998955,137.97847709991038,2,task,0.24973120028153062,[-0.4444444444444444],[-0.11851851851851852],[1],[0],[0],[2.2497312002815306],137.97881310014054,137.9936895999126,0.0002164999023079872,138.29387600021437,139.29438580013812,[],[],[],[],[],[],,,,,,,,,,461212,001,2025-02-28_09h50.10.880,Foreperiod_task,2024.2.1post4,60.14697511920976,2025-02-28 09h50.31.669052 -0800,
41,0,41,[-0.44537037037037036],[-0.11481481481481481],[1],[0],[0],[2.249617400113493],[],[],[],[],[],[],,,,0,0,0,0,41,0,41,0,139.3104077000171,,,,,,,,,,,,139.29469980020076,139.3104077000171,0.00023860018700361252,139.3104077000171,139.5101568000391,141.2937121000141,141.2937121000141,141.2937121000141,141.3104224000126,141.545002900064,2,task,0.2496174001134932,[-0.44537037037037036],[-0.11481481481481481],[1],[0],[0],[2.249617400113493],141.54542469978333,141.56042039999738,0.0002993997186422348,141.8603070001118,142.77771090017632,[],[],[],[],[],[],,,,,,,,,,461212,001,2025-02-28_09h50.10.880,Foreperiod_task,2024.2.1post4,60.14697511920976,2025-02-28 09h50.31.669052 -0800,
42,0,42,[-0.44537037037037036],[-0.11481481481481481],[1],[0],[0],[2.2834363002330065],[],[],[],[],[],[],,,,0,0,0,0,42,0,42,0,142.79374710004777,,,,,,,,,,,,142.7780499001965,142.79374710004777,0.0002484000287950039,142.79374710004777,142.99383960012347,144.77720149978995,144.77720149978995,144.77720149978995,144.79368840018287,145.06247889995575,2,task,0.2834363002330065,[-0.44537037037037036],[-0.11481481481481481],[1],[0],[0],[2.2834363002330065],145.06294229999185,145.0770343001932,0.0003138999454677105,145.37756149983034,146.6112203001976,[],[],[],[],[],[],,,,,,,,,,461212,001,2025-02-28_09h50.10.880,Foreperiod_task,2024.2.1post4,60.14697511920976,2025-02-28 09h50.31.669052 -0800,
43,0,43,[-0.462037037037037],[-0.10185185185185185],[1],[0],[0],[0.8331383997574449],[],[],[],[],[],[],,,,0,0,0,0,43,0,43,0,146.62651420012116,,,,,,,,,,,,146.611523500178,146.62651420012116,0.00023580016568303108,146.62651420012116,146.82718909997493,147.1269522998482,147.1269522998482,147.1269522998482,147.14372050017118,147.44544780021533,0.5,task,0.33313839975744486,[-0.462037037037037],[-0.10185185185185185],[1],[0],[0],[0.8331383997574449],147.44589419988915,147.46076299995184,0.00030219973996281624,147.76026799995452,148.79468140006065,[],[],[],[],[],[],,,,,,,,,,461212,001,2025-02-28_09h50.10.880,Foreperiod_task,2024.2.1post4,60.14697511920976,2025-02-28 09h50.31.669052 -0800,
44,0,44,[-0.462037037037037],[-0.10185185185185185],[1],[0],[0],[0.782632399816066],[],[],[],[],[],[],,,,0,0,0,0,44,0,44,0,148.8104468001984,,,,,,,,,,,,148.79502649977803,148.8104468001984,0.0002650003880262375,148.8104468001984,149.01052659982815,149.31049830000848,149.31049830000848,149.31049830000848,149.3270157999359,149.57838249998167,0.5,task,0.282632399816066,[-0.462037037037037],[-0.10185185185185185],[1],[0],[0],[0.782632399816066],149.57879350008443,149.59371249983087,0.0003088996745646,149.8937049000524,150.7782079000026,[],[],[],[],[],[],,,,,,,,,,461212,001,2025-02-28_09h50.10.880,Foreperiod_task,2024.2.1post4,60.14697511920976,2025-02-28 09h50.31.669052 -0800,
45,0,45,[-0.462037037037037],[-0.10185185185185185],[1],[0],[0],[0.765648600179702],[],[],[],[],[],[],,,,0,0,0,0,45,0,45,0,150.7939069001004,,,,,,,,,,,,150.77859430015087,150.7939069001004,0.00028510019183158875,150.7939069001004,150.99379329988733,151.29364340007305,151.29364340007305,151.29364340007305,151.31030739983544,151.544963600114,0.5,task,0.26564860017970204,[-0.462037037037037],[-0.10185185185185185],[1],[0],[0],[0.765648600179702],151.54537539975718,151.56038739997894,0.0002921000123023987,151.86007810011506,153.11110989982262,[],[],[],[],[],[],,,,,,,,,,461212,001,2025-02-28_09h50.10.880,Foreperiod_task,2024.2.1post4,60.14697511920976,2025-02-28 09h50.31.669052 -0800,
46,0,46,[-0.462037037037037],[-0.10185185185185185],[1],[0],[0],[0.7657785001210868],[],[],[],[],[],[],,,,0,0,0,0,46,0,46,0,153.12707989988849,,,,,,,,,,,,153.11150419991463,153.12707989988849,0.00028460007160902023,153.12707989988849,153.3270772001706,153.61040790006518,153.61040790006518,153.61040790006518,153.62710249982774,153.8779583000578,0.5,task,0.26577850012108684,[-0.462037037037037],[-0.10185185185185185],[1],[0],[0],[0.7657785001210868],153.8783327001147,153.89372090017423,0.0002639000304043293,154.193782299757,155.5270660999231,[],[],[],[],[],[],,,,,,,,,,461212,001,2025-02-28_09h50.10.880,Foreperiod_task,2024.2.1post4,60.14697511920976,2025-02-28 09h50.31.669052 -0800,
47,0,47,[-0.462037037037037],[-0.10185185185185185],[1],[0],[0],[0.7672326001338661],[],[],[],[],[],[],,,,0,0,0,0,47,0,47,0,155.543578799814,,,,,,,,,,,,155.5272276001051,155.543578799814,0.00012800004333257675,155.543578799814,155.74378489982337,156.02705200016499,156.02705200016499,156.02705200016499,156.04378880001605,156.29514429997653,0.5,task,0.26723260013386607,[-0.462037037037037],[-0.10185185185185185],[1],[0],[0],[0.7672326001338661],156.29550739983097,156.31036050012335,0.0002313000150024891,156.61021760012954,157.96155960019678,[],[],[],[],[],[],,,,,,,,,,461212,001,2025-02-28_09h50.10.880,Foreperiod_task,2024.2.1post4,60.14697511920976,2025-02-28 09h50.31.669052 -0800,
48,0,48,[-0.462037037037037],[-0.10185185185185185],[1],[0],[0],[1.3987960000522435],[],[],[],[],[],[],,,,0,0,0,0,48,0,48,0,157.97690390003845,,,,,,,,,,,,157.96187489992008,157.97690390003845,0.0002476000227034092,157.97690390003845,158.17718120012432,159.02706999983639,159.02706999983639,159.02706999983639,159.04379530018196,159.3614361998625,1.053652508550605,task,0.3451434915016385,[-0.462037037037037],[-0.10185185185185185],[1],[0],[0],[1.3987960000522435],159.36185189988464,159.37670629983768,0.0002765003591775894,159.67696350021288,160.84433540003374,[],[],[],[],[],[],,,,,,,,,,461212,001,2025-02-28_09h50.10.880,Foreperiod_task,2024.2.1post4,60.14697511920976,2025-02-28 09h50.31.669052 -0800,
49,0,49,[-0.462037037037037],[-0.10185185185185185],[1],[0],[0],[2.2498156996443868],[],[],[],[],[],[],,,,0,0,0,0,49,0,49,0,160.86033920012414,,,,,,,,,,,,160.84463929990306,160.86033920012414,0.00023799994960427284,160.86033920012414,161.06063990015537,162.84361559990793,162.84361559990793,162.84361559990793,162.86034160014242,163.09531940007582,2,task,0.24981569964438677,[-0.462037037037037],[-0.10185185185185185],[1],[0],[0],[2.2498156996443868],163.09579459996894,163.11048369994387,0.0003154999576508999,163.410389599856,164.6610389999114,[],[],[],[],[],[],,,,,,,,,,461212,001,2025-02-28_09h50.10.880,Foreperiod_task,2024.2.1post4,60.14697511920976,2025-02-28 09h50.31.669052 -0800,
50,0,50,[-0.47314814814814815],[-0.08888888888888889],[1],[0],[0],[2.249848799780011],[],[],[],[],[],[],,,,0,0,0,0,50,0,50,0,164.6769722001627,,,,,,,,,,,,164.66135479975492,164.6769722001627,0.0002457997761666775,164.6769722001627,164.87690730020404,166.660805599764,166.660805599764,166.660805599764,166.6771955997683,166.91211970010772,2,task,0.24984879978001118,[-0.47314814814814815],[-0.08888888888888889],[1],[0],[0],[2.249848799780011],166.91257799975574,166.92709389980882,0.0002877996303141117,167.22716260002926,168.511101400014,[],[],[],[],[],[],,,,,,,,,,461212,001,2025-02-28_09h50.10.880,Foreperiod_task,2024.2.1post4,60.14697511920976,2025-02-28 09h50.31.669052 -0800,
51,0,51,[-0.47314814814814815],[-0.08981481481481482],[1],[0],[0],[2.2660063998773694],[],[],[],[],[],[],,,,0,0,0,0,51,0,51,0,168.52700289990753,,,,,,,,,,,,168.5114625999704,168.52700289990753,0.0002711997367441654,168.52700289990753,168.72698409995064,170.51037479983643,170.51037479983643,170.51037479983643,170.52703320002183,170.77849010005593,2,task,0.2660063998773694,[-0.47314814814814815],[-0.08981481481481482],[1],[0],[0],[2.2660063998773694],170.7790191997774,170.79392640013248,0.0003577996976673603,171.0938360998407,172.2943696998991,[],[],[],[],[],[],,,,,,,,,,461212,001,2025-02-28_09h50.10.880,Foreperiod_task,2024.2.1post4,60.14697511920976,2025-02-28 09h50.31.669052 -0800,
52,0,52,[-0.475],[-0.09074074074074075],[1],[0],[0],[2.2826425000093877],[],[],[],[],[],[],,,,0,0,0,0,52,0,52,0,172.31052359985188,,,,,,,,,,,,172.29467910015956,172.31052359985188,0.00023989984765648842,172.31052359985188,172.51042940001935,174.29379000002518,174.29379000002518,174.29379000002518,174.3103897999972,174.5781916999258,2,task,0.28264250000938773,[-0.475],[-0.09074074074074075],[1],[0],[0],[2.2826425000093877],174.57872019987553,174.59390409989282,0.00038530025631189346,174.89368529990315,175.9943703999743,[],[],[],[],[],[],,,,,,,,,,461212,001,2025-02-28_09h50.10.880,Foreperiod_task,2024.2.1post4,60.14697511920976,2025-02-28 09h50.31.669052 -0800,
53,0,53,[-0.487962962962963],[-0.0787037037037037],[1],[0],[0],[0.8496036999858916],[],[],[],[],[],[],,,,0,0,0,0,53,0,53,0,176.0103875999339,,,,,,,,,,,,175.99470899999142,176.0103875999339,0.00024459976702928543,176.0103875999339,176.2103769001551,176.49372760020196,176.49372760020196,176.49372760020196,176.51043300004676,176.8451400999911,0.5,task,0.3496036999858916,[-0.487962962962963],[-0.0787037037037037],[1],[0],[0],[0.8496036999858916],176.84560110000893,176.86024890001863,0.0003368002362549305,177.16038489993662,178.261306299828,[],[],[],[],[],[],,,,,,,,,,461212,001,2025-02-28_09h50.10.880,Foreperiod_task,2024.2.1post4,60.14697511920976,2025-02-28 09h50.31.669052 -0800,
54,0,54,[-0.487962962962963],[-0.0787037037037037],[1],[0],[0],[1.6997406003065407],[],[],[],[],[],[],,,,0,0,0,0,54,0,54,0,178.27716789999977,,,,,,,,,,,,178.2615197999403,178.27716789999977,0.00016119983047246933,178.27716789999977,178.47700450010598,179.7103911000304,179.7103911000304,179.7103911000304,179.7270081001334,179.962038599886,1.4388356742284343,task,0.26090492607810645,[-0.487962962962963],[-0.0787037037037037],[1],[0],[0],[1.6997406003065407],179.96263199998066,179.97710870020092,0.0004213000647723675,180.27699259994552,181.5610972000286,[],[],[],[],[],[],,,,,,,,,,461212,001,2025-02-28_09h50.10.880,Foreperiod_task,2024.2.1post4,60.14697511920976,2025-02-28 09h50.31.669052 -0800,
55,0,55,[-0.487962962962963],[-0.0787037037037037],[1],[0],[0],[0.7992214001715183],[],[],[],[],[],[],,,,0,0,0,0,55,0,55,0,181.57712720008567,,,,,,,,,,,,181.56144100008532,181.57712720008567,0.00026950007304549217,181.57712720008567,181.7772240000777,182.06036850018427,182.06036850018427,182.06036850018427,182.07703399984166,182.36159839993343,0.5,task,0.2992214001715183,[-0.487962962962963],[-0.0787037037037037],[1],[0],[0],[0.7992214001715183],182.36205870006233,182.37709729978815,0.00028769997879862785,182.67698970017955,183.82795060006902,[],[],[],[],[],[],,,,,,,,,,461212,001,2025-02-28_09h50.10.880,Foreperiod_task,2024.2.1post4,60.14697511920976,2025-02-28 09h50.31.669052 -0800,
56,0,56,[-0.48703703703703705],[-0.0787037037037037],[1],[0],[0],[2.2662414996884763],[],[],[],[],[],[],,,,0,0,0,0,56,0,56,0,183.84390969993547,,,,,,,,,,,,183.828271899838,183.84390969993547,0.00025240005925297737,183.84390969993547,184.0437305001542,185.84379439987242,185.84379439987242,185.84379439987242,185.86034790007398,186.09530539996922,2,task,0.2662414996884763,[-0.48703703703703705],[-0.0787037037037037],[1],[0],[0],[2.2662414996884763],186.09585390007123,186.11038610013202,0.0004182998090982437,186.41047130012885,187.62773930002004,[],[],[],[],[],[],,,,,,,,,,461212,001,2025-02-28_09h50.10.880,Foreperiod_task,2024.2.1post4,60.14697511920976,2025-02-28 09h50.31.669052 -0800,
57,0,57,[-0.48703703703703705],[-0.0787037037037037],[1],[0],[0],[0.8499219999648631],[],[],[],[],[],[],,,,0,0,0,0,57,0,57,0,187.64378520008177,,,,,,,,,,,,187.62804909981787,187.64378520008177,0.00024300022050738335,187.64378520008177,187.8436520001851,188.1271093999967,188.1271093999967,188.1271093999967,188.14372309995815,188.4789603999816,0.5,task,0.34992199996486306,[-0.48703703703703705],[-0.0787037037037037],[1],[0],[0],[0.8499219999648631],188.4795371000655,188.49369749985635,0.0004309997893869877,188.7935763001442,190.1280756997876,[],[],[],[],[],[],,,,,,,,,,461212,001,2025-02-28_09h50.10.880,Foreperiod_task,2024.2.1post4,60.14697511920976,2025-02-28 09h50.31.669052 -0800,
58,0,58,[-0.36574074074074076],[0.019444444444444445],[1],[0],[0],[2.266405699774623],[],[],[],[],[],[],,,,0,0,0,0,58,0,58,0,190.14385230001062,,,,,,,,,,,,190.12852649996057,190.14385230001062,0.0003728000447154045,190.14385230001062,190.34372380003333,192.12731679994613,192.12731679994613,192.12731679994613,192.143983699847,192.39610880007967,2,task,0.2664056997746229,[-0.36574074074074076],[0.019444444444444445],[1],[0],[0],[2.266405699774623],192.396613500081,192.41051650000736,0.00037080002948641777,192.71039440017194,193.827847099863,[],[],[],[],[],[],,,,,,,,,,461212,001,2025-02-28_09h50.10.880,Foreperiod_task,2024.2.1post4,60.14697511920976,2025-02-28 09h50.31.669052 -0800,
59,0,59,[-0.36574074074074076],[0.019444444444444445],[1],[0],[0],[2.2499589999206364],[],[],[],[],[],[],,,,0,0,0,0,59,0,59,0,193.84372159978375,,,,,,,,,,,,193.82815979979932,193.84372159978375,0.0002537001855671406,193.84372159978375,194.04388670017943,195.82707859994844,195.82707859994844,195.82707859994844,195.8438797998242,196.07899669976905,2,task,0.24995899992063642,[-0.36574074074074076],[0.019444444444444445],[1],[0],[0],[2.2499589999206364],196.07945080008358,196.09384559979662,0.0003068000078201294,196.39377520000562,197.66120450012386,[],[],[],[],[],[],,,,,,,,,,461212,001,2025-02-28_09h50.10.880,Foreperiod_task,2024.2.1post4,60.14697511920976,2025-02-28 09h50.31.669052 -0800,
60,0,60,[-0.3685185185185185],[0.020370370370370372],[1],[0],[0],[0.8661829000338912],[],[],[],[],[],[],,,,0,0,0,0,60,0,60,0,197.67701159976423,,,,,,,,,,,,197.661551900208,197.67701159976423,0.00028159981593489647,197.67701159976423,197.87725010002032,198.16048680013046,198.16048680013046,198.16048680013046,198.17719740001485,198.52851390000433,0.5,task,0.3661829000338912,[-0.3685185185185185],[0.020370370370370372],[1],[0],[0],[0.8661829000338912],198.5288448999636,198.54379330016673,0.0002055000513792038,198.84372510015965,199.89450580021366,[],[],[],[],[],[],,,,,,,,,,461212,001,2025-02-28_09h50.10.880,Foreperiod_task,2024.2.1post4,60.14697511920976,2025-02-28 09h50.31.669052 -0800,
61,0,61,[-0.3685185185185185],[0.020370370370370372],[1],[0],[0],[0.8490965999662876],[],[],[],[],[],[],,,,0,0,0,0,61,0,61,0,199.91042360011488,,,,,,,,,,,,199.89483139989898,199.91042360011488,0.0002542003057897091,199.91042360011488,200.1099340999499,200.39377819979563,200.39377819979563,200.39377819979563,200.41051279986277,200.744702400174,0.5,task,0.3490965999662876,[-0.3685185185185185],[0.020370370370370372],[1],[0],[0],[0.8490965999662876],200.74522490007803,200.76042219996452,0.00040900008752942085,201.0606065997854,202.211283700075,[],[],[],[],[],[],,,,,,,,,,461212,001,2025-02-28_09h50.10.880,Foreperiod_task,2024.2.1post4,60.14697511920976,2025-02-28 09h50.31.669052 -0800,
62,0,62,[-0.3685185185185185],[0.020370370370370372],[1],[0],[0],[0.7995583000592887],[],[],[],[],[],[],,,,0,0,0,0,62,0,62,0,202.22710230015218,,,,,,,,,,,,202.21161249978468,202.22710230015218,0.0002480996772646904,202.22710230015218,202.4271184997633,202.72714059986174,202.72714059986174,202.72714059986174,202.7440573000349,203.01192239997908,0.5,task,0.29955830005928874,[-0.3685185185185185],[0.020370370370370372],[1],[0],[0],[0.7995583000592887],203.01236320007592,203.0273885000497,0.0002991999499499798,203.32704500015825,204.36118379980326,[],[],[],[],[],[],,,,,,,,,,461212,001,2025-02-28_09h50.10.880,Foreperiod_task,2024.2.1post4,60.14697511920976,2025-02-28 09h50.31.669052 -0800,
63,0,63,[-0.37037037037037035],[0.022222222222222223],[1],[0],[0],[2.2669143001548946],[],[],[],[],[],[],,,,0,0,0,0,63,0,63,0,204.3769328999333,,,,,,,,,,,,204.36149800010026,204.3769328999333,0.0002465001307427883,204.3769328999333,204.57723989989609,206.37709449976683,206.37709449976683,206.37709449976683,206.39379720017314,206.62932609999552,2,task,0.2669143001548946,[-0.37037037037037035],[0.022222222222222223],[1],[0],[0],[2.2669143001548946],206.62968710018322,206.6437888997607,0.00022329995408654213,206.9437354002148,208.21143899997696,[],[],[],[],[],[],,,,,,,,,,461212,001,2025-02-28_09h50.10.880,Foreperiod_task,2024.2.1post4,60.14697511920976,2025-02-28 09h50.31.669052 -0800,
64,0,64,[-0.37037037037037035],[0.022222222222222223],[1],[0],[0],[0.7663855999708176],[],[],[],[],[],[],,,,0,0,0,0,64,0,64,0,208.22710830019787,,,,,,,,,,,,208.2117627998814,208.22710830019787,0.00025299983099102974,208.22710830019787,208.42702119983733,208.72715240018442,208.72715240018442,208.72715240018442,208.74376610014588,208.97888959990814,0.5,task,0.26638559997081757,[-0.37037037037037035],[0.022222222222222223],[1],[0],[0],[0.7663855999708176],208.97928379988298,208.99433120014146,0.00027540000155568123,209.29372749989852,210.3445611000061,[],[],[],[],[],[],,,,,,,,,,461212,001,2025-02-28_09h50.10.880,Foreperiod_task,2024.2.1post4,60.14697511920976,2025-02-28 09h50.31.669052 -0800,
65,0,65,[-0.37037037037037035],[0.022222222222222223],[1],[0],[0],[2.2330757002346218],[],[],[],[],[],[],,,,0,0,0,0,65,0,65,0,210.36035849992186,,,,,,,,,,,,210.3448932999745,210.36035849992186,0.0002586999908089638,210.36035849992186,210.5605751001276,212.34367999993265,212.34367999993265,212.34367999993265,212.36055940017104,212.57886889996007,2,task,0.23307570023462176,[-0.37037037037037035],[0.022222222222222223],[1],[0],[0],[2.2330757002346218],212.57933590002358,212.59383680019528,0.0002623000182211399,212.89379670005292,214.22775269998237,[],[],[],[],[],[],,,,,,,,,,461212,001,2025-02-28_09h50.10.880,Foreperiod_task,2024.2.1post4,60.14697511920976,2025-02-28 09h50.31.669052 -0800,
66,0,66,[-0.3814814814814815],[0.026851851851851852],[1],[0],[0],[0.7832209998741746],[],[],[],[],[],[],,,,0,0,0,0,66,0,66,0,214.24390480015427,,,,,,,,,,,,214.22791229980066,214.24390480015427,0.0001142001710832119,214.24390480015427,214.44388649985194,214.72712170006707,214.72712170006707,214.72712170006707,214.74390720017254,215.01189120020717,0.5,task,0.2832209998741746,[-0.3814814814814815],[0.026851851851851852],[1],[0],[0],[0.7832209998741746],215.01236509997398,215.02734869997948,0.00033110007643699646,215.32624070020393,216.2447877000086,[],[],[],[],[],[],,,,,,,,,,461212,001,2025-02-28_09h50.10.880,Foreperiod_task,2024.2.1post4,60.14697511920976,2025-02-28 09h50.31.669052 -0800,
67,0,67,[-0.3814814814814815],[0.026851851851851852],[1],[0],[0],[0.7661011000163853],[],[],[],[],[],[],,,,0,0,0,0,67,0,67,0,216.26052040001377,,,,,,,,,,,,216.24509359989315,216.26052040001377,0.0002625999040901661,216.26052040001377,216.46038189996034,216.76060459995642,216.76060459995642,216.76060459995642,216.7776867998764,217.01206139987335,0.5,task,0.2661011000163853,[-0.3814814814814815],[0.026851851851851852],[1],[0],[0],[0.7661011000163853],217.01252239989117,217.02700910018757,0.0003070002421736717,217.32712149992585,218.57831980008632,[],[],[],[],[],[],,,,,,,,,,461212,001,2025-02-28_09h50.10.880,Foreperiod_task,2024.2.1post4,60.14697511920976,2025-02-28 09h50.31.669052 -0800,
68,0,68,[-0.38425925925925924],[0.028703703703703703],[1],[0],[0],[0.749046300072223],[],[],[],[],[],[],,,,0,0,0,0,68,0,68,0,218.59382179984823,,,,,,,,,,,,218.57867160020396,218.59382179984823,0.00027399975806474686,218.59382179984823,218.79380270000547,219.09391489997506,219.09391489997506,219.09391489997506,219.11044530011714,219.3285349998623,0.5,task,0.24904630007222295,[-0.38425925925925924],[0.028703703703703703],[1],[0],[0],[0.749046300072223],219.32900829985738,219.34391510020941,0.0003284001722931862,219.6437316001393,220.8111104001291,[],[],[],[],[],[],,,,,,,,,,461212,001,2025-02-28_09h50.10.880,Foreperiod_task,2024.2.1post4,60.14697511920976,2025-02-28 09h50.31.669052 -0800,
69,0,69,[-0.3888888888888889],[0.030555555555555555],[1],[0],[0],[2.2663182001560926],[],[],[],[],[],[],,,,0,0,0,0,69,0,69,0,220.82705749990419,,,,,,,,,,,,220.81145690008998,220.82705749990419,0.0002817995846271515,220.82705749990419,221.02719249995425,222.81051609991118,222.81051609991118,222.81051609991118,222.82719390001148,223.0785706997849,2,task,0.26631820015609264,[-0.3888888888888889],[0.030555555555555555],[1],[0],[0],[2.2663182001560926],223.0789850000292,223.09379869978875,0.0002868003211915493,223.39374759979546,224.46123029990122,[],[],[],[],[],[],,,,,,,,,,461212,001,2025-02-28_09h50.10.880,Foreperiod_task,2024.2.1post4,60.14697511920976,2025-02-28 09h50.31.669052 -0800,
70,0,70,[-0.3907407407407407],[0.030555555555555555],[1],[0],[0],[2.2665096996352077],[],[],[],[],[],[],,,,0,0,0,0,70,0,70,0,224.47680460009724,,,,,,,,,,,,224.46156139997765,224.47680460009724,0.0002525998279452324,224.47680460009724,224.67703180015087,226.45983299985528,226.45983299985528,226.45983299985528,226.4773276001215,226.72898129979149,2,task,0.26650969963520765,[-0.3907407407407407],[0.030555555555555555],[1],[0],[0],[2.2665096996352077],226.7294564000331,226.74387890007347,0.00033289985731244087,227.04380369978026,227.92784829996526,[],[],[],[],[],[],,,,,,,,,,461212,001,2025-02-28_09h50.10.880,Foreperiod_task,2024.2.1post4,60.14697511920976,2025-02-28 09h50.31.669052 -0800,
71,0,71,[-0.4009259259259259],[0.030555555555555555],[1],[0],[0],[0.8163962000980973],[],[],[],[],[],[],,,,0,0,0,0,71,0,71,0,227.94370329985395,,,,,,,,,,,,227.92816880019382,227.94370329985395,0.00024980027228593826,227.94370329985395,228.14384939987212,228.4271702999249,228.4271702999249,228.4271702999249,228.44371780008078,228.7454786999151,0.5,task,0.3163962000980973,[-0.4009259259259259],[0.030555555555555555],[1],[0],[0],[0.8163962000980973],228.74596890015528,228.76064520003274,0.000350000336766243,229.0601229998283,230.32792750000954,[],[],[],[],[],[],,,,,,,,,,461212,001,2025-02-28_09h50.10.880,Foreperiod_task,2024.2.1post4,60.14697511920976,2025-02-28 09h50.31.669052 -0800,
72,0,72,[-0.4027777777777778],[0.030555555555555555],[1],[0],[0],[2.2665049000643194],[],[],[],[],[],[],,,,0,0,0,0,72,0,72,0,230.34383569983765,,,,,,,,,,,,230.32825519982725,230.34383569983765,0.0002544000744819641,230.34383569983765,230.5440309997648,232.32710570003837,232.32710570003837,232.32710570003837,232.34384089987725,232.59553589997813,2,task,0.26650490006431937,[-0.4027777777777778],[0.030555555555555555],[1],[0],[0],[2.2665049000643194],232.59595619980246,232.61057749995962,0.00029250001534819603,232.91057150019333,233.84449099982157,[],[],[],[],[],[],,,,,,,,,,461212,001,2025-02-28_09h50.10.880,Foreperiod_task,2024.2.1post4,60.14697511920976,2025-02-28 09h50.31.669052 -0800,
73,0,73,[-0.4046296296296296],[0.03148148148148148],[1],[0],[0],[2.299631600268185],[],[],[],[],[],[],,,,0,0,0,0,73,0,73,0,233.86051490018144,,,,,,,,,,,,233.84481350006536,233.86051490018144,0.0002525998279452324,233.86051490018144,234.0605506999418,235.84382689977065,235.84382689977065,235.84382689977065,235.86056549986824,236.14520830009133,2,task,0.29963160026818514,[-0.4046296296296296],[0.03148148148148148],[1],[0],[0],[2.299631600268185],236.14562550000846,236.16046599997208,0.00027410034090280533,236.4604644998908,237.77771849976853,[],[],[],[],[],[],,,,,,,,,,461212,001,2025-02-28_09h50.10.880,Foreperiod_task,2024.2.1post4,60.14697511920976,2025-02-28 09h50.31.669052 -0800,
74,0,74,[-0.41203703703703703],[0.03425925925925926],[1],[0],[0],[0.7829113998450339],[],[],[],[],[],[],,,,0,0,0,0,74,0,74,0,237.79349589999765,,,,,,,,,,,,237.77801850019023,237.79349589999765,0.0002326001413166523,237.79349589999765,237.9939143997617,238.27723440015689,238.27723440015689,238.27723440015689,238.2937396997586,238.56159040005878,0.5,task,0.2829113998450339,[-0.41203703703703703],[0.03425925925925926],[1],[0],[0],[0.7829113998450339],238.56196339987218,238.57715929998085,0.00024270033463835716,238.8770730998367,239.9944830997847,[],[],[],[],[],[],,,,,,,,,,461212,001,2025-02-28_09h50.10.880,Foreperiod_task,2024.2.1post4,60.14697511920976,2025-02-28 09h50.31.669052 -0800,
75,0,75,[-0.41203703703703703],[0.03425925925925926],[1],[0],[0],[1.316248799674213],[],[],[],[],[],[],,,,0,0,0,0,75,0,75,0,240.01045669987798,,,,,,,,,,,,239.99482950009406,240.01045669987798,0.00025429995730519295,240.01045669987798,240.21049029985443,241.02732749981806,241.02732749981806,241.02732749981806,241.043868499808,241.3117845999077,1.0211555660690879,task,0.29509323360512507,[-0.41203703703703703],[0.03425925925925926],[1],[0],[0],[1.316248799674213],241.3121270001866,241.32698940020055,0.00024079997092485428,241.62717079976574,242.8945280998014,[],[],[],[],[],[],,,,,,,,,,461212,001,2025-02-28_09h50.10.880,Foreperiod_task,2024.2.1post4,60.14697511920976,2025-02-28 09h50.31.669052 -0800,
76,0,76,[-0.41203703703703703],[0.03425925925925926],[1],[0],[0],[0.7496584001928568],[],[],[],[],[],[],,,,0,0,0,0,76,0,76,0,242.9106934000738,,,,,,,,,,,,242.89484919980168,242.9106934000738,0.0002526002936065197,242.9106934000738,243.1106540998444,243.39382629981264,243.39382629981264,243.39382629981264,243.41058589983732,243.64533350011334,0.5,task,0.2496584001928568,[-0.41203703703703703],[0.03425925925925926],[1],[0],[0],[0.7496584001928568],243.64569739997387,243.66058559995145,0.00022740010172128677,243.96057369979098,245.0279870000668,[],[],[],[],[],[],,,,,,,,,,461212,001,2025-02-28_09h50.10.880,Foreperiod_task,2024.2.1post4,60.14697511920976,2025-02-28 09h50.31.669052 -0800,
77,0,77,[-0.41203703703703703],[0.03425925925925926],[1],[0],[0],[2.2496962998993695],[],[],[],[],[],[],,,,0,0,0,0,77,0,77,0,245.04397429991513,,,,,,,,,,,,245.02829079981893,245.04397429991513,0.0002359999343752861,245.04397429991513,245.24388640001416,247.02715349989012,247.02715349989012,247.02715349989012,247.04381480021402,247.27901280019432,2,task,0.24969629989936948,[-0.41203703703703703],[0.03425925925925926],[1],[0],[0],[2.2496962998993695],247.2795826997608,247.29401650000364,0.00041719991713762283,247.59399659978226,248.5113898999989,[],[],[],[],[],[],,,,,,,,,,461212,001,2025-02-28_09h50.10.880,Foreperiod_task,2024.2.1post4,60.14697511920976,2025-02-28 09h50.31.669052 -0800,
78,0,78,[-0.4203703703703704],[0.03425925925925926],[1],[0],[0],[1.3493609996512532],[],[],[],[],[],[],,,,0,0,0,0,78,0,78,0,248.5270949001424,,,,,,,,,,,,248.5117146000266,248.5270949001424,0.00025480007752776146,248.5270949001424,248.72708779992536,249.56056699994951,249.56056699994951,249.56056699994951,249.57752100005746,249.86184509983286,1.0335862157357185,task,0.3157747839155347,[-0.4203703703703704],[0.03425925925925926],[1],[0],[0],[1.3493609996512532],249.86227370006964,249.8771486999467,0.00029770005494356155,250.17718310002238,251.14458210021257,[],[],[],[],[],[],,,,,,,,,,461212,001,2025-02-28_09h50.10.880,Foreperiod_task,2024.2.1post4,60.14697511920976,2025-02-28 09h50.31.669052 -0800,
79,0,79,[-0.4203703703703704],[0.032407407407407406],[1],[0],[0],[2.283217899966985],[],[],[],[],[],[],,,,0,0,0,0,79,0,79,0,251.16062719980255,,,,,,,,,,,,251.14487290009856,251.16062719980255,0.00022500008344650269,251.16062719980255,251.36029439978302,253.1605623997748,253.1605623997748,253.1605623997748,253.17741560004652,253.42913579987362,2,task,0.283217899966985,[-0.4203703703703704],[0.032407407407407406],[1],[0],[0],[2.283217899966985],253.42964649992064,253.44412979995832,0.00034319981932640076,253.7438794998452,254.72794240014628,[],[],[],[],[],[],,,,,,,,,,461212,001,2025-02-28_09h50.10.880,Foreperiod_task,2024.2.1post4,60.14697511920976,2025-02-28 09h50.31.669052 -0800,
80,0,80,[-0.4203703703703704],[0.032407407407407406],[1],[0],[0],[2.266432899981737],[],[],[],[],[],[],,,,0,0,0,0,80,0,80,0,254.74383690021932,,,,,,,,,,,,254.72828519996256,254.74383690021932,0.00026849983260035515,254.74383690021932,254.943836200051,256.72725259978324,256.72725259978324,256.72725259978324,256.74392649997026,256.9955914001912,2,task,0.26643289998173714,[-0.4203703703703704],[0.032407407407407406],[1],[0],[0],[2.266432899981737],256.9960504001938,257.0105381999165,0.00030239997431635857,257.31044819997624,258.6614148002118,[],[],[],[],[],[],,,,,,,,,,461212,001,2025-02-28_09h50.10.880,Foreperiod_task,2024.2.1post4,60.14697511920976,2025-02-28 09h50.31.669052 -0800,
81,0,81,[-0.4222222222222222],[0.025],[1],[0],[0],[2.2815306996926665],[],[],[],[],[],[],,,,0,0,0,0,81,0,81,0,258.6772079002112,,,,,,,,,,,,258.66171849984676,258.6772079002112,0.00023690005764365196,258.6772079002112,258.8771843998693,260.66053570015356,260.66053570015356,260.66053570015356,260.6771541000344,260.9436495997943,2,task,0.28153069969266653,[-0.4222222222222222],[0.025],[1],[0],[0],[2.2815306996926665],260.9438251000829,260.9600240001455,0.00012579979375004768,261.2607589000836,262.39457709994167,[],[],[],[],[],[],,,,,,,,,,461212,001,2025-02-28_09h50.10.880,Foreperiod_task,2024.2.1post4,60.14697511920976,2025-02-28 09h50.31.669052 -0800,
82,0,82,[-0.4212962962962963],[0.03148148148148148],[1],[0],[0],[2.2671103002503514],[],[],[],[],[],[],,,,0,0,0,0,82,0,82,0,262.41074719978496,,,,,,,,,,,,262.3948510000482,262.41074719978496,0.0002155001275241375,262.41074719978496,262.6103538000025,264.393961600028,264.393961600028,264.393961600028,264.410588900093,264.66286709997803,2,task,0.26711030025035143,[-0.4212962962962963],[0.03148148148148148],[1],[0],[0],[2.2671103002503514],264.6634657997638,264.6773846000433,0.0004543997347354889,264.9772252999246,266.2780522000976,[],[],[],[],[],[],,,,,,,,,,461212,001,2025-02-28_09h50.10.880,Foreperiod_task,2024.2.1post4,60.14697511920976,2025-02-28 09h50.31.669052 -0800,
83,0,83,[-0.4212962962962963],[0.03148148148148148],[1],[0],[0],[0.9827903001569211],[],[],[],[],[],[],,,,0,0,0,0,83,0,83,0,266.2938994001597,,,,,,,,,,,,266.27834900002927,266.2938994001597,0.0002305000089108944,266.2938994001597,266.49391329986975,266.7772634001449,266.7772634001449,266.7772634001449,266.79390960000455,267.26181459985673,0.5,task,0.48279030015692115,[-0.4212962962962963],[0.03148148148148148],[1],[0],[0],[0.9827903001569211],267.2621802999638,267.2774004000239,0.000260000117123127,267.57711579976603,268.6269565997645,[],[],[],[],[],[],,,,,,,,,,461212,001,2025-02-28_09h50.10.880,Foreperiod_task,2024.2.1post4,60.14697511920976,2025-02-28 09h50.31.669052 -0800,
84,0,84,[-0.4212962962962963],[0.03148148148148148],[1],[0],[0],[0.8022468998096883],[],[],[],[],[],[],,,,0,0,0,0,84,0,84,0,268.6438168999739,,,,,,,,,,,,268.62709579989314,268.6438168999739,0.00011069979518651962,268.6438168999739,268.84393269987777,269.1273253997788,269.1273253997788,269.1273253997788,269.144017000217,269.430167700164,0.5,task,0.30224689980968833,[-0.4212962962962963],[0.03148148148148148],[1],[0],[0],[0.8022468998096883],269.4306156001985,269.4440291998908,0.0003665001131594181,269.74439009977505,270.7279380997643,[],[],[],[],[],[],,,,,,,,,,461212,001,2025-02-28_09h50.10.880,Foreperiod_task,2024.2.1post4,60.14697511920976,2025-02-28 09h50.31.669052 -0800,
85,0,85,[-0.42407407407407405],[0.030555555555555555],[1],[0],[0],[0.8164792000316083],[],[],[],[],[],[],,,,0,0,0,0,85,0,85,0,270.74385080020875,,,,,,,,,,,,270.72824280010536,270.74385080020875,0.00023279991000890732,270.74385080020875,270.9439527997747,271.22734679980204,271.22734679980204,271.22734679980204,271.2439270000905,271.54547719983384,0.5,task,0.31647920003160834,[-0.42407407407407405],[0.030555555555555555],[1],[0],[0],[0.8164792000316083],271.5460103000514,271.5606010998599,0.00038899993523955345,271.86077880021185,272.99468429991975,[],[],[],[],[],[],,,,,,,,,,461212,001,2025-02-28_09h50.10.880,Foreperiod_task,2024.2.1post4,60.14697511920976,2025-02-28 09h50.31.669052 -0800,
86,0,86,[-0.42407407407407405],[0.025],[1],[0],[0],[1.416396599728614],[],[],[],[],[],[],,,,0,0,0,0,86,0,86,0,273.0105670001358,,,,,,,,,,,,272.995042799972,273.0105670001358,0.0002842000685632229,273.0105670001358,273.21008169976994,274.01071939989924,274.01071939989924,274.01071939989924,274.0273084999062,274.412209500093,1.0084276348207089,task,0.40796896490790524,[-0.42407407407407405],[0.025],[1],[0],[0],[1.416396599728614],274.41265869978815,274.42728709988296,0.00032609980553388596,274.72717159986496,275.8114406000823,[],[],[],[],[],[],,,,,,,,,,461212,001,2025-02-28_09h50.10.880,Foreperiod_task,2024.2.1post4,60.14697511920976,2025-02-28 09h50.31.669052 -0800,
87,0,87,[-0.42407407407407405],[0.025],[1],[0],[0],[2.249408900272101],[],[],[],[],[],[],,,,0,0,0,0,87,0,87,0,275.827298599761,,,,,,,,,,,,275.81178209977224,275.827298599761,0.0002665002830326557,275.827298599761,276.02727920003235,277.8106173998676,277.8106173998676,277.8106173998676,277.8273273999803,278.06187469977885,2,task,0.24940890027210116,[-0.42407407407407405],[0.025],[1],[0],[0],[2.249408900272101],278.06221779994667,278.07723130006343,0.00022559985518455505,278.3772375001572,279.3114152997732,[],[],[],[],[],[],,,,,,,,,,461212,001,2025-02-28_09h50.10.880,Foreperiod_task,2024.2.1post4,60.14697511920976,2025-02-28 09h50.31.669052 -0800,
88,0,88,[-0.4361111111111111],[0.025925925925925925],[1],[0],[0],[0.8332985998131335],[],[],[],[],[],[],,,,0,0,0,0,88,0,88,0,279.3274790998548,,,,,,,,,,,,279.3117265999317,279.3274790998548,0.00024129962548613548,279.3274790998548,279.5272393999621,279.82723620021716,279.82723620021716,279.82723620021716,279.84404639992863,280.14585989993066,0.5,task,0.3332985998131335,[-0.4361111111111111],[0.025925925925925925],[1],[0],[0],[0.8332985998131335],280.1462873998098,280.16075609996915,0.0002906997688114643,280.4607676998712,281.5448783999309,[],[],[],[],[],[],,,,,,,,,,461212,001,2025-02-28_09h50.10.880,Foreperiod_task,2024.2.1post4,60.14697511920976,2025-02-28 09h50.31.669052 -0800,
89,0,89,[-0.4361111111111111],[0.025925925925925925],[1],[0],[0],[0.7660507000982761],[],[],[],[],[],[],,,,0,0,0,0,89,0,89,0,281.56067640008405,,,,,,,,,,,,281.54566629976034,281.56067640008405,0.0006838999688625336,281.56067640008405,281.76053979992867,282.06068240012974,282.06068240012974,282.06068240012974,282.07746380008757,282.3125999001786,0.5,task,0.26605070009827614,[-0.4361111111111111],[0.025925925925925925],[1],[0],[0],[0.7660507000982761],282.3131345999427,282.32686039991677,0.0003877999261021614,282.6273333998397,283.5117000997998,[],[],[],[],[],[],,,,,,,,,,461212,001,2025-02-28_09h50.10.880,Foreperiod_task,2024.2.1post4,60.14697511920976,2025-02-28 09h50.31.669052 -0800,
90,0,90,[-0.43796296296296294],[0.028703703703703703],[1],[0],[0],[1.3160457001067698],[],[],[],[],[],[],,,,0,0,0,0,90,0,90,0,283.5273843999021,,,,,,,,,,,,283.5120329000056,283.5273843999021,0.0002541998401284218,283.5273843999021,283.7272741999477,284.5438477001153,284.5438477001153,284.5438477001153,284.560610699933,284.8290575998835,1.0234642082063106,task,0.29258149190045923,[-0.43796296296296294],[0.028703703703703703],[1],[0],[0],[1.3160457001067698],284.8295891000889,284.8440384999849,0.000386199913918972,285.1438303999603,286.31177229993045,[],[],[],[],[],[],,,,,,,,,,461212,001,2025-02-28_09h50.10.880,Foreperiod_task,2024.2.1post4,60.14697511920976,2025-02-28 09h50.31.669052 -0800,
91,0,91,[-0.43796296296296294],[0.028703703703703703],[1],[0],[0],[0.7992801000364125],[],[],[],[],[],[],,,,0,0,0,0,91,0,91,0,286.3273419002071,,,,,,,,,,,,286.3121063997969,286.3273419002071,0.00026529980823397636,286.3273419002071,286.52717240015045,286.82738520018756,286.82738520018756,286.82738520018756,286.84409060003236,287.1121740997769,0.5,task,0.2992801000364125,[-0.43796296296296294],[0.028703703703703703],[1],[0],[0],[0.7992801000364125],287.11265680007637,287.1273642000742,0.0003380998969078064,287.42717949999496,288.3782755997963,[],[],[],[],[],[],,,,,,,,,,461212,001,2025-02-28_09h50.10.880,Foreperiod_task,2024.2.1post4,60.14697511920976,2025-02-28 09h50.31.669052 -0800,
92,0,92,[-0.44074074074074077],[0.02962962962962963],[1],[0],[0],[0.7662459998391569],[],[],[],[],[],[],,,,0,0,0,0,92,0,92,0,288.39383210008964,,,,,,,,,,,,288.3785863001831,288.39383210008964,0.0002513001672923565,288.39383210008964,288.59402099996805,288.8941492000595,288.8941492000595,288.8941492000595,288.91067609982565,289.14559249999,0.5,task,0.26624599983915687,[-0.44074074074074077],[0.02962962962962963],[1],[0],[0],[0.7662459998391569],289.145978000015,289.1607972001657,0.0002405000850558281,289.4604675001465,290.62790679978207,[],[],[],[],[],[],,,,,,,,,,461212,001,2025-02-28_09h50.10.880,Foreperiod_task,2024.2.1post4,60.14697511920976,2025-02-28 09h50.31.669052 -0800,
93,0,93,[-0.44074074074074077],[0.02962962962962963],[1],[0],[0],[1.3499138997867703],[],[],[],[],[],[],,,,0,0,0,0,93,0,93,0,290.6439066999592,,,,,,,,,,,,290.6282075000927,290.6439066999592,0.00023450003936886787,290.6439066999592,290.8440478001721,291.7440809002146,291.7440809002146,291.7440809002146,291.76062079984695,291.9789550001733,1.1056821736765527,task,0.2442317261102176,[-0.44074074074074077],[0.02962962962962963],[1],[0],[0],[1.3499138997867703],291.97939370013773,291.99400659976527,0.00029060011729598045,292.29398509999737,293.36149949999526,[],[],[],[],[],[],,,,,,,,,,461212,001,2025-02-28_09h50.10.880,Foreperiod_task,2024.2.1post4,60.14697511920976,2025-02-28 09h50.31.669052 -0800,
94,0,94,[-0.44074074074074077],[0.02962962962962963],[1],[0],[0],[1.7329251999035478],[],[],[],[],[],[],,,,0,0,0,0,94,0,94,0,293.37732579978183,,,,,,,,,,,,293.36183169996366,293.37732579978183,0.0002450002357363701,293.37732579978183,293.5774771999568,294.8439792999998,294.8439792999998,294.8439792999998,294.86062269983813,295.09551429981366,1.468731690790389,task,0.26419350911315886,[-0.44074074074074077],[0.02962962962962963],[1],[0],[0],[1.7329251999035478],295.0959084997885,295.11065270006657,0.00026819994673132896,295.4106843001209,296.4945807000622,[],[],[],[],[],[],,,,,,,,,,461212,001,2025-02-28_09h50.10.880,Foreperiod_task,2024.2.1post4,60.14697511920976,2025-02-28 09h50.31.669052 -0800,
95,0,95,[-0.44537037037037036],[0.03425925925925926],[1],[0],[0],[2.249379300046712],[],[],[],[],[],[],,,,0,0,0,0,95,0,95,0,296.51060289982706,,,,,,,,,,,,296.49490150017664,296.51060289982706,0.00026480015367269516,296.51060289982706,296.7106269001961,298.4940077001229,298.4940077001229,298.4940077001229,298.51072440017015,298.74510890012607,2,task,0.24937930004671216,[-0.44537037037037036],[0.03425925925925926],[1],[0],[0],[2.249379300046712],298.74574099993333,298.76064570015296,0.0004989998415112495,299.060563699808,299.944665200077,[],[],[],[],[],[],,,,,,,,,,461212,001,2025-02-28_09h50.10.880,Foreperiod_task,2024.2.1post4,60.14697511920976,2025-02-28 09h50.31.669052 -0800,
96,0,96,[-0.44907407407407407],[0.03518518518518519],[1],[0],[0],[0.8161841998808086],[],[],[],[],[],[],,,,0,0,0,0,96,0,96,0,299.9606029000133,,,,,,,,,,,,299.94499559979886,299.9606029000133,0.0002699997276067734,299.9606029000133,300.1606413000263,300.4440453997813,300.4440453997813,300.4440453997813,300.46064579999074,300.7618800001219,0.5,task,0.3161841998808086,[-0.44907407407407407],[0.03518518518518519],[1],[0],[0],[0.8161841998808086],300.7622794001363,300.77737849997357,0.00028689997270703316,301.07725560013205,302.21139599988237,[],[],[],[],[],[],,,,,,,,,,461212,001,2025-02-28_09h50.10.880,Foreperiod_task,2024.2.1post4,60.14697511920976,2025-02-28 09h50.31.669052 -0800,
97,0,97,[-0.4564814814814815],[0.03425925925925926],[1],[0],[0],[2.2661675000563264],[],[],[],[],[],[],,,,0,0,0,0,97,0,97,0,302.2272859001532,,,,,,,,,,,,302.21166979987174,302.2272859001532,0.00021590013056993484,302.2272859001532,302.42730040010065,304.2106388001703,304.2106388001703,304.2106388001703,304.2274389998056,304.47843710007146,2,task,0.2661675000563264,[-0.4564814814814815],[0.03425925925925926],[1],[0],[0],[2.2661675000563264],304.47874779999256,304.49407690018415,0.00022190017625689507,304.7940449998714,306.0279602999799,[],[],[],[],[],[],,,,,,,,,,461212,001,2025-02-28_09h50.10.880,Foreperiod_task,2024.2.1post4,60.14697511920976,2025-02-28 09h50.31.669052 -0800,
98,0,98,[-0.45925925925925926],[0.03518518518518519],[1],[0],[0],[0.7663706000894308],[],[],[],[],[],[],,,,0,0,0,0,98,0,98,0,306.0439736000262,,,,,,,,,,,,306.02825930016115,306.0439736000262,0.00024290010333061218,306.0439736000262,306.2438623998314,306.5272462000139,306.5272462000139,306.5272462000139,306.5440266998485,306.79568989994004,0.5,task,0.2663706000894308,[-0.45925925925925926],[0.03518518518518519],[1],[0],[0],[0.7663706000894308],306.7962484997697,306.81068619992584,0.0003831000067293644,307.11073070019484,308.01167639996856,[],[],[],[],[],[],,,,,,,,,,461212,001,2025-02-28_09h50.10.880,Foreperiod_task,2024.2.1post4,60.14697511920976,2025-02-28 09h50.31.669052 -0800,
99,0,99,[-0.45925925925925926],[0.03518518518518519],[1],[0],[0],[0.7661852999590337],[],[],[],[],[],[],,,,0,0,0,0,99,0,99,0,308.0272172000259,,,,,,,,,,,,308.0120060998015,308.0272172000259,0.0002609998919069767,308.0272172000259,308.2278205999173,308.5274249999784,308.5274249999784,308.5274249999784,308.54413190018386,308.7790664001368,0.5,task,0.2661852999590337,[-0.45925925925925926],[0.03518518518518519],[1],[0],[0],[0.7661852999590337],308.7795648002066,308.79400529991835,0.000359599944204092,309.0939414999448,310.44467299990356,[],[],[],[],[],[],,,,,,,,,,461212,001,2025-02-28_09h50.10.880,Foreperiod_task,2024.2.1post4,60.14697511920976,2025-02-28 09h50.31.669052 -0800,
0,0,0,,,,,,,,,,,,,space,31.060348500031978,None,0,0,0,0,,,,,,,,,,,,,,,,,,,,,,,,,,,,,,,,,,,,,,,,,,,,,,,,310.4523183000274,310.47431109985337,310.47431109985337,341.5446505998261,space,31.060348500031978,None,,461212,001,2025-02-28_09h50.10.880,Foreperiod_task,2024.2.1post4,60.14697511920976,2025-02-28 09h50.31.669052 -0800,
0,0,0,[-0.4425925925925926],[0.030555555555555555],[1],[0],[0],[2.249428499955684],[],[],[],[],[],[],,,,1,0,1,0,0,0,0,0,341.56028420012444,,,,,,,,,,,,341.54540499998257,341.56028420012444,0.0007299999706447124,341.56028420012444,341.7606914998032,343.5443031000905,343.5443031000905,343.5443031000905,343.56087739998475,343.7955724000931,2,task,0.24942849995568395,[-0.4425925925925926],[0.030555555555555555],[1],[0],[0],[2.249428499955684],343.79601839976385,343.8107888000086,0.00031960010528564453,344.110656700097,345.04471939988434,[],[],[],[],[],[],,,,,,,,,,461212,001,2025-02-28_09h50.10.880,Foreperiod_task,2024.2.1post4,60.14697511920976,2025-02-28 09h50.31.669052 -0800,
1,0,1,[-0.5388888888888889],[-0.33611111111111114],[1],[0],[0],[2.248351600021124],[],[],[],[],[],[],,,,1,0,1,0,1,0,1,0,345.06075289985165,,,,,,,,,,,,345.04506189981475,345.06075289985165,0.0002763001248240471,345.06075289985165,345.26059179985896,347.04434629995376,347.04434629995376,347.04434629995376,347.0609101001173,347.29385760007426,2,task,0.24835160002112389,[-0.5388888888888889],[-0.33611111111111114],[1],[0],[0],[2.248351600021124],347.294012399856,347.31007000012323,0.00010220007970929146,347.6107843001373,348.92808640003204,[],[],[],[],[],[],,,,,,,,,,461212,001,2025-02-28_09h50.10.880,Foreperiod_task,2024.2.1post4,60.14697511920976,2025-02-28 09h50.31.669052 -0800,
2,0,2,[-0.5398148148148149],[-0.3351851851851852],[1],[0],[0],[0.7829261999577284],[],[],[],[],[],[],,,,1,0,1,0,2,0,2,0,348.9440810000524,,,,,,,,,,,,348.9283981998451,348.9440810000524,0.00024739978834986687,348.9440810000524,349.1440636999905,349.42747339978814,349.42747339978814,349.42747339978814,349.4441061001271,349.71201530005783,0.5,task,0.2829261999577284,[-0.5398148148148149],[-0.3351851851851852],[1],[0],[0],[0.7829261999577284],349.71240290021524,349.7274620998651,0.00025139981880784035,350.02743649994954,351.06142999976873,[],[],[],[],[],[],,,,,,,,,,461212,001,2025-02-28_09h50.10.880,Foreperiod_task,2024.2.1post4,60.14697511920976,2025-02-28 09h50.31.669052 -0800,
3,0,3,[-0.5398148148148149],[-0.3333333333333333],[1],[0],[0],[0.7656689998693764],[],[],[],[],[],[],,,,1,0,1,0,3,0,3,0,351.07743880013004,,,,,,,,,,,,351.0617355001159,351.07743880013004,0.00023979973047971725,351.07743880013004,351.2774057998322,351.560087100137,351.560087100137,351.560087100137,351.57727959984913,351.82783089997247,0.5,task,0.2656689998693764,[-0.5398148148148149],[-0.3333333333333333],[1],[0],[0],[0.7656689998693764],351.8280270001851,351.8436684999615,0.00014009978622198105,352.14397670002654,353.2284967000596,[],[],[],[],[],[],,,,,,,,,,461212,001,2025-02-28_09h50.10.880,Foreperiod_task,2024.2.1post4,60.14697511920976,2025-02-28 09h50.31.669052 -0800,
4,0,4,[-0.5398148148148149],[-0.3333333333333333],[1],[0],[0],[0.748921699821949],[],[],[],[],[],[],,,,1,0,1,0,4,0,4,0,353.24424610007554,,,,,,,,,,,,353.22883660020307,353.24424610007554,0.0002536000683903694,353.24424610007554,353.44420599984005,353.7441434999928,353.7441434999928,353.7441434999928,353.7607832001522,353.9785925000906,0.5,task,0.248921699821949,[-0.5398148148148149],[-0.3333333333333333],[1],[0],[0],[0.748921699821949],353.9790270999074,353.99421550007537,0.00031769974157214165,354.29410099983215,355.2284967000596,[],[],[],[],[],[],,,,,,,,,,461212,001,2025-02-28_09h50.10.880,Foreperiod_task,2024.2.1post4,60.14697511920976,2025-02-28 09h50.31.669052 -0800,
5,0,5,[-0.5472222222222223],[-0.32407407407407407],[1],[0],[0],[2.3321692002937198],[],[],[],[],[],[],,,,1,0,1,0,5,0,5,0,355.24424090003595,,,,,,,,,,,,355.2288565998897,355.24424090003595,0.00028249993920326233,355.24424090003595,355.4440541998483,357.2441662000492,357.2441662000492,357.2441662000492,357.2609171997756,357.5617645997554,2,task,0.33216920029371977,[-0.5472222222222223],[-0.32407407407407407],[1],[0],[0],[2.3321692002937198],357.56215929985046,357.5774383000098,0.0002794000320136547,357.87751290015876,359.21166960010305,[],[],[],[],[],[],,,,,,,,,,461212,001,2025-02-28_09h50.10.880,Foreperiod_task,2024.2.1post4,60.14697511920976,2025-02-28 09h50.31.669052 -0800,
6,0,6,[-0.5481481481481482],[-0.32314814814814813],[1],[0],[0],[0.748998399823904],[],[],[],[],[],[],,,,1,0,1,0,6,0,6,0,359.22748599993065,,,,,,,,,,,,359.2119665001519,359.22748599993065,0.00023170001804828644,359.22748599993065,359.42744420003146,359.71115730004385,359.71115730004385,359.71115730004385,359.7275034999475,359.9616669001989,0.5,task,0.24899839982390404,[-0.5481481481481482],[-0.32314814814814813],[1],[0],[0],[0.748998399823904],359.96206249995157,359.9773760000244,0.0002835998311638832,360.27664679987356,361.61179240001366,[],[],[],[],[],[],,,,,,,,,,461212,001,2025-02-28_09h50.10.880,Foreperiod_task,2024.2.1post4,60.14697511920976,2025-02-28 09h50.31.669052 -0800,
7,0,7,[-0.5481481481481482],[-0.32407407407407407],[1],[0],[0],[2.2659605001099408],[],[],[],[],[],[],,,,1,0,1,0,7,0,7,0,361.62740209978074,,,,,,,,,,,,361.61204819986597,361.62740209978074,0.00020030001178383827,361.62740209978074,361.82762059988454,363.6275069997646,363.6275069997646,363.6275069997646,363.6441277000122,363.87873560003936,2,task,0.26596050010994077,[-0.5481481481481482],[-0.32407407407407407],[1],[0],[0],[2.2659605001099408],363.87911329977214,363.8941214000806,0.000260000117123127,364.1940505998209,365.5276830000803,[],[],[],[],[],[],,,,,,,,,,461212,001,2025-02-28_09h50.10.880,Foreperiod_task,2024.2.1post4,60.14697511920976,2025-02-28 09h50.31.669052 -0800,
8,0,8,[-0.549074074074074],[-0.32407407407407407],[1],[0],[0],[0.7999301999807358],[],[],[],[],[],[],,,,1,0,1,0,8,0,8,0,365.54412559978664,,,,,,,,,,,,365.5279238000512,365.54412559978664,0.00018650013953447342,365.54412559978664,365.7440736000426,366.02763100015,366.02763100015,366.02763100015,366.0442340997979,366.3284571999684,0.5,task,0.2999301999807358,[-0.549074074074074],[-0.32407407407407407],[1],[0],[0],[0.7999301999807358],366.32876749988645,366.34412029990926,0.00020999973639845848,366.6441358998418,367.61198570020497,[],[],[],[],[],[],,,,,,,,,,461212,001,2025-02-28_09h50.10.880,Foreperiod_task,2024.2.1post4,60.14697511920976,2025-02-28 09h50.31.669052 -0800,
9,0,9,[-0.549074074074074],[-0.3212962962962963],[1],[0],[0],[1.6158191999420524],[],[],[],[],[],[],,,,1,0,1,0,9,0,9,0,367.62760710017756,,,,,,,,,,,,367.61233210004866,367.62760710017756,0.000268399715423584,367.62760710017756,367.8274368997663,368.8443876001984,368.8443876001984,368.8443876001984,368.86061439989135,369.2288207001984,1.2253103563369856,task,0.39050884360506677,[-0.549074074074074],[-0.3212962962962963],[1],[0],[0],[1.6158191999420524],369.2292145998217,369.24411129998043,0.0002849996089935303,369.5441581001505,370.69486129982397,[],[],[],[],[],[],,,,,,,,,,461212,001,2025-02-28_09h50.10.880,Foreperiod_task,2024.2.1post4,60.14697511920976,2025-02-28 09h50.31.669052 -0800,
10,0,10,[-0.549074074074074],[-0.32037037037037036],[1],[0],[0],[1.6994390999898314],[],[],[],[],[],[],,,,1,0,1,0,10,0,10,0,370.71066959993914,,,,,,,,,,,,370.6952118999325,370.71066959993914,0.00028800033032894135,370.71066959993914,370.91071749990806,372.1608660998754,372.1608660998754,372.1608660998754,372.1775552001782,372.3953455998562,1.4555972881813626,task,0.24384181180846887,[-0.549074074074074],[-0.32037037037037036],[1],[0],[0],[1.6994390999898314],372.39570470014587,372.4108639000915,0.0002529001794755459,372.7107305000536,373.62831149995327,[],[],[],[],[],[],,,,,,,,,,461212,001,2025-02-28_09h50.10.880,Foreperiod_task,2024.2.1post4,60.14697511920976,2025-02-28 09h50.31.669052 -0800,
11,0,11,[-0.549074074074074],[-0.32037037037037036],[1],[0],[0],[2.332861799746752],[],[],[],[],[],[],,,,1,0,1,0,11,0,11,0,373.64370530005544,,,,,,,,,,,,373.62861920008436,373.64370530005544,0.00022359983995556831,373.64370530005544,373.8440148998052,375.62743300013244,375.62743300013244,375.62743300013244,375.64442809997126,375.96224279981107,2,task,0.3328617997467518,[-0.549074074074074],[-0.32037037037037036],[1],[0],[0],[2.332861799746752],375.9626540001482,375.97755709988996,0.0002907002344727516,376.2774025001563,377.5942029999569,[],[],[],[],[],[],,,,,,,,,,461212,001,2025-02-28_09h50.10.880,Foreperiod_task,2024.2.1post4,60.14697511920976,2025-02-28 09h50.31.669052 -0800,
12,0,12,[-0.549074074074074],[-0.32037037037037036],[1],[0],[0],[2.250660799909383],[],[],[],[],[],[],,,,1,0,1,0,12,0,12,0,377.6106726001017,,,,,,,,,,,,377.5943157998845,377.6106726001017,8.71000811457634e-05,377.6106726001017,377.810936300084,379.5941673000343,379.5941673000343,379.5941673000343,379.61090420000255,379.84565130015835,2,task,0.25066079990938306,[-0.549074074074074],[-0.32037037037037036],[1],[0],[0],[2.250660799909383],379.8460586001165,379.8601906998083,0.0002888999879360199,380.16069159982726,381.31183019978926,[],[],[],[],[],[],,,,,,,,,,461212,001,2025-02-28_09h50.10.880,Foreperiod_task,2024.2.1post4,60.14697511920976,2025-02-28 09h50.31.669052 -0800,
13,0,13,[-0.5527777777777778],[-0.31851851851851853],[1],[0],[0],[2.2660463000647724],[],[],[],[],[],[],,,,1,0,1,0,13,0,13,0,381.3268438000232,,,,,,,,,,,,381.31219770014286,381.3268438000232,0.0002973000518977642,381.3268438000232,381.52761140000075,383.32766359997913,383.32766359997913,383.32766359997913,383.34437979990616,383.5791628002189,2,task,0.26604630006477237,[-0.5527777777777778],[-0.31851851851851853],[1],[0],[0],[2.2660463000647724],383.5796054000966,383.59410170000046,0.0002918001264333725,383.89408659981564,385.16164509998634,[],[],[],[],[],[],,,,,,,,,,461212,001,2025-02-28_09h50.10.880,Foreperiod_task,2024.2.1post4,60.14697511920976,2025-02-28 09h50.31.669052 -0800,
14,0,14,[-0.5537037037037037],[-0.31851851851851853],[1],[0],[0],[0.7829237999394536],[],[],[],[],[],[],,,,1,0,1,0,14,0,14,0,385.17750439979136,,,,,,,,,,,,385.1619545998983,385.17750439979136,0.00024220021441578865,385.17750439979136,385.3775217998773,385.66082079987973,385.66082079987973,385.66082079987973,385.67744580004364,385.9456734000705,0.5,task,0.2829237999394536,[-0.5537037037037037],[-0.31851851851851853],[1],[0],[0],[0.7829237999394536],385.94607429997995,385.96080720005557,0.00025769975036382675,386.26084830006585,387.31180860009044,[],[],[],[],[],[],,,,,,,,,,461212,001,2025-02-28_09h50.10.880,Foreperiod_task,2024.2.1post4,60.14697511920976,2025-02-28 09h50.31.669052 -0800,
15,0,15,[-0.5537037037037037],[-0.31851851851851853],[1],[0],[0],[2.2659645997919142],[],[],[],[],[],[],,,,1,0,1,0,15,0,15,0,387.3275075000711,,,,,,,,,,,,387.3121206997894,387.3275075000711,0.00024319998919963837,387.3275075000711,387.52798649994656,389.3109349999577,389.3109349999577,389.3109349999577,389.32760100020096,389.5788047998212,2,task,0.2659645997919142,[-0.5537037037037037],[-0.31851851851851853],[1],[0],[0],[2.2659645997919142],389.5791740999557,389.5941340997815,0.0003426000475883484,389.8935936000198,391.0616473001428,[],[],[],[],[],[],,,,,,,,,,461212,001,2025-02-28_09h50.10.880,Foreperiod_task,2024.2.1post4,60.14697511920976,2025-02-28 09h50.31.669052 -0800,
16,0,16,[-0.5546296296296296],[-0.3175925925925926],[1],[0],[0],[0.8316711001098156],[],[],[],[],[],[],,,,1,0,1,0,16,0,16,0,391.0768868001178,,,,,,,,,,,,391.0619335998781,391.0768868001178,0.00021860003471374512,391.0768868001178,391.2774486998096,391.577613200061,391.577613200061,391.577613200061,391.5945492000319,391.8940110998228,0.5,task,0.3316711001098156,[-0.5546296296296296],[-0.3175925925925926],[1],[0],[0],[0.8316711001098156],391.8941632998176,391.9102321001701,0.00010040029883384705,392.2108930000104,393.51163939991966,[],[],[],[],[],[],,,,,,,,,,461212,001,2025-02-28_09h50.10.880,Foreperiod_task,2024.2.1post4,60.14697511920976,2025-02-28 09h50.31.669052 -0800,
17,0,17,[-0.5546296296296296],[-0.3175925925925926],[1],[0],[0],[0.8326184996403754],[],[],[],[],[],[],,,,1,0,1,0,17,0,17,0,393.5280372998677,,,,,,,,,,,,393.511918600183,393.5280372998677,0.00021690037101507187,393.5280372998677,393.7276277001947,394.0111957998015,394.0111957998015,394.0111957998015,394.02772990008816,394.3451459999196,0.5,task,0.3326184996403754,[-0.5546296296296296],[-0.3175925925925926],[1],[0],[0],[0.8326184996403754],394.34548099990934,394.3606449998915,0.00023330003023147583,394.6603573001921,395.9619605001062,[],[],[],[],[],[],,,,,,,,,,461212,001,2025-02-28_09h50.10.880,Foreperiod_task,2024.2.1post4,60.14697511920976,2025-02-28 09h50.31.669052 -0800,
18,0,18,[-0.5546296296296296],[-0.3175925925925926],[1],[0],[0],[2.283342100214213],[],[],[],[],[],[],,,,1,0,1,0,18,0,18,0,395.97707600006834,,,,,,,,,,,,395.96232359996065,395.97707600006834,0.00025959964841604233,395.97707600006834,396.1776449000463,397.97707389993593,397.97707389993593,397.97707389993593,397.9942389000207,398.2464372999966,2,task,0.28334210021421313,[-0.5546296296296296],[-0.3175925925925926],[1],[0],[0],[2.283342100214213],398.2468258999288,398.2610673001036,0.00025090016424655914,398.5608013002202,399.81170339975506,[],[],[],[],[],[],,,,,,,,,,461212,001,2025-02-28_09h50.10.880,Foreperiod_task,2024.2.1post4,60.14697511920976,2025-02-28 09h50.31.669052 -0800,
19,0,19,[-0.5546296296296296],[-0.3175925925925926],[1],[0],[0],[2.2489851997233927],[],[],[],[],[],[],,,,1,0,1,0,19,0,19,0,399.8275012001395,,,,,,,,,,,,399.81208429997787,399.8275012001395,0.000314200296998024,399.8275012001395,400.02755519980565,401.81111249979585,401.81111249979585,401.81111249979585,401.8278107000515,402.06170560000464,2,task,0.24898519972339272,[-0.5546296296296296],[-0.3175925925925926],[1],[0],[0],[2.2489851997233927],402.0619656997733,402.07771709980443,0.00016609998419880867,402.3775579999201,403.2950177001767,[],[],[],[],[],[],,,,,,,,,,461212,001,2025-02-28_09h50.10.880,Foreperiod_task,2024.2.1post4,60.14697511920976,2025-02-28 09h50.31.669052 -0800,
20,0,20,[-0.5574074074074075],[-0.3148148148148148],[1],[0],[0],[0.7652289997786283],[],[],[],[],[],[],,,,1,0,1,0,20,0,20,0,403.31089810002595,,,,,,,,,,,,403.2953622001223,403.31089810002595,0.00027010031044483185,403.31089810002595,403.51086620008573,403.794423900079,403.794423900079,403.794423900079,403.81094999983907,404.06109259976074,0.5,task,0.26522899977862835,[-0.5574074074074075],[-0.3148148148148148],[1],[0],[0],[0.7652289997786283],404.06141579989344,404.0772775998339,0.0002506999298930168,404.37755690002814,405.37852679984644,[],[],[],[],[],[],,,,,,,,,,461212,001,2025-02-28_09h50.10.880,Foreperiod_task,2024.2.1post4,60.14697511920976,2025-02-28 09h50.31.669052 -0800,
21,0,21,[-0.5574074074074075],[-0.3148148148148148],[1],[0],[0],[0.7825929997488856],[],[],[],[],[],[],,,,1,0,1,0,21,0,21,0,405.3943230002187,,,,,,,,,,,,405.3788577001542,405.3943230002187,0.00026350002735853195,405.3943230002187,405.59451769990847,405.8942937999964,405.8942937999964,405.8942937999964,405.91088079987094,406.1623088000342,0.5,task,0.28259299974888563,[-0.5574074074074075],[-0.3148148148148148],[1],[0],[0],[0.7825929997488856],406.16280010016635,406.17749859998,0.0003689001314342022,406.477529599797,407.7289567999542,[],[],[],[],[],[],,,,,,,,,,461212,001,2025-02-28_09h50.10.880,Foreperiod_task,2024.2.1post4,60.14697511920976,2025-02-28 09h50.31.669052 -0800,
22,0,22,[-0.5574074074074075],[-0.3148148148148148],[1],[0],[0],[0.7488338002003729],[],[],[],[],[],[],,,,1,0,1,0,22,0,22,0,407.74430629983544,,,,,,,,,,,,407.7292806999758,407.74430629983544,0.00025739986449480057,407.74430629983544,407.9442181000486,408.24441660009325,408.24441660009325,408.24441660009325,408.26110630016774,408.47891419986263,0.5,task,0.24883380020037293,[-0.5574074074074075],[-0.3148148148148148],[1],[0],[0],[0.7488338002003729],408.47929879976436,408.4942466998473,0.00021999981254339218,408.7941959002055,409.7115158000961,[],[],[],[],[],[],,,,,,,,,,461212,001,2025-02-28_09h50.10.880,Foreperiod_task,2024.2.1post4,60.14697511920976,2025-02-28 09h50.31.669052 -0800,
23,0,23,[-0.5601851851851852],[-0.31296296296296294],[1],[0],[0],[2.299926199950278],[],[],[],[],[],[],,,,1,0,1,0,23,0,23,0,409.72749640000984,,,,,,,,,,,,409.71182340011,409.72749640000984,0.0002410002052783966,409.72749640000984,409.9272008999251,411.7112052999437,411.7112052999437,411.7112052999437,411.7276917002164,412.01255219988525,2,task,0.2999261999502778,[-0.5601851851851852],[-0.31296296296296294],[1],[0],[0],[2.299926199950278],412.0130588999018,412.0275511997752,0.0003544003702700138,412.3277647998184,413.3782844999805,[],[],[],[],[],[],,,,,,,,,,461212,001,2025-02-28_09h50.10.880,Foreperiod_task,2024.2.1post4,60.14697511920976,2025-02-28 09h50.31.669052 -0800,
24,0,24,[-0.5583333333333333],[-0.31296296296296294],[1],[0],[0],[2.2663535000756383],[],[],[],[],[],[],,,,1,0,1,0,24,0,24,0,413.3940646997653,,,,,,,,,,,,413.37860010005534,413.3940646997653,0.0002463003620505333,413.3940646997653,413.59416330000386,415.377597999759,415.377597999759,415.377597999759,415.3943477999419,415.6457400000654,2,task,0.2663535000756383,[-0.5583333333333333],[-0.31296296296296294],[1],[0],[0],[2.2663535000756383],415.6462953002192,415.6609824998304,0.000412799883633852,415.9616173999384,417.2782065998763,[],[],[],[],[],[],,,,,,,,,,461212,001,2025-02-28_09h50.10.880,Foreperiod_task,2024.2.1post4,60.14697511920976,2025-02-28 09h50.31.669052 -0800,
25,0,25,[-0.562962962962963],[-0.31296296296296294],[1],[0],[0],[2.282575599849224],[],[],[],[],[],[],,,,1,0,1,0,25,0,25,0,417.2943779998459,,,,,,,,,,,,417.27849149983376,417.2943779998459,0.00022289995104074478,417.2943779998459,417.49413859983906,419.2942512999289,419.2942512999289,419.2942512999289,419.3108353000134,419.56181370001286,2,task,0.2825755998492241,[-0.562962962962963],[-0.31296296296296294],[1],[0],[0],[2.282575599849224],419.5623055999167,419.5776185998693,0.0003533000126481056,419.8775919000618,420.76164619997144,[],[],[],[],[],[],,,,,,,,,,461212,001,2025-02-28_09h50.10.880,Foreperiod_task,2024.2.1post4,60.14697511920976,2025-02-28 09h50.31.669052 -0800,
26,0,26,[-0.5657407407407408],[-0.31296296296296294],[1],[0],[0],[2.299727199599147],[],[],[],[],[],[],,,,1,0,1,0,26,0,26,0,420.77750020008534,,,,,,,,,,,,420.7619786998257,420.77750020008534,0.0002605002373456955,420.77750020008534,420.9777648001909,422.7609092001803,422.7609092001803,422.7609092001803,422.77756100008264,423.06236180011183,2,task,0.29972719959914684,[-0.5657407407407408],[-0.31296296296296294],[1],[0],[0],[2.299727199599147],423.06271849991754,423.07779829995707,0.00024330010637640953,423.37710440019146,424.52846860000864,[],[],[],[],[],[],,,,,,,,,,461212,001,2025-02-28_09h50.10.880,Foreperiod_task,2024.2.1post4,60.14697511920976,2025-02-28 09h50.31.669052 -0800,
27,0,27,[-0.5657407407407408],[-0.31296296296296294],[1],[0],[0],[0.7659142999909818],[],[],[],[],[],[],,,,1,0,1,0,27,0,27,0,424.544185699895,,,,,,,,,,,,424.5288335001096,424.544185699895,0.0002751997672021389,424.544185699895,424.7441567000933,425.02751229982823,425.02751229982823,425.02751229982823,425.0443763001822,425.2953943000175,0.5,task,0.2659142999909818,[-0.5657407407407408],[-0.31296296296296294],[1],[0],[0],[0.7659142999909818],425.29581520007923,425.3109104000032,0.00030589988455176353,425.61091079982,426.9783998001367,[],[],[],[],[],[],,,,,,,,,,461212,001,2025-02-28_09h50.10.880,Foreperiod_task,2024.2.1post4,60.14697511920976,2025-02-28 09h50.31.669052 -0800,
28,0,28,[-0.5657407407407408],[-0.31296296296296294],[1],[0],[0],[0.7994509995914996],[],[],[],[],[],[],,,,1,0,1,0,28,0,28,0,426.99428750015795,,,,,,,,,,,,426.97867539990693,426.99428750015795,0.00021150009706616402,426.99428750015795,427.194408999756,427.47774680005386,427.47774680005386,427.47774680005386,427.49429190019146,427.778720700182,0.5,task,0.29945099959149957,[-0.5657407407407408],[-0.31296296296296294],[1],[0],[0],[0.7994509995914996],427.77914030011743,427.7942602997646,0.00030739977955818176,428.09417519997805,429.27878500008956,[],[],[],[],[],[],,,,,,,,,,461212,001,2025-02-28_09h50.10.880,Foreperiod_task,2024.2.1post4,60.14697511920976,2025-02-28 09h50.31.669052 -0800,
29,0,29,[-0.5657407407407408],[-0.31296296296296294],[1],[0],[0],[2.265519800130278],[],[],[],[],[],[],,,,1,0,1,0,29,0,29,0,429.2942352001555,,,,,,,,,,,,429.2791026001796,429.2942352001555,0.00025090016424655914,429.2942352001555,429.4942815997638,431.2942042998038,431.2942042998038,431.2942042998038,431.31086569977924,431.5452112997882,2,task,0.26551980013027787,[-0.5657407407407408],[-0.31296296296296294],[1],[0],[0],[2.265519800130278],431.5456285998225,431.561034000013,0.0003040996380150318,431.861364599783,432.92893699975684,[],[],[],[],[],[],,,,,,,,,,461212,001,2025-02-28_09h50.10.880,Foreperiod_task,2024.2.1post4,60.14697511920976,2025-02-28 09h50.31.669052 -0800,
30,0,30,[-0.5740740740740741],[-0.30925925925925923],[1],[0],[0],[0.765760499984026],[],[],[],[],[],[],,,,1,0,1,0,30,0,30,0,432.9441367001273,,,,,,,,,,,,432.9291960000992,432.9441367001273,0.00019509997218847275,432.9441367001273,433.144708099775,433.4438837999478,433.4438837999478,433.4438837999478,433.46099269995466,433.69561070017517,0.5,task,0.26576049998402596,[-0.5740740740740741],[-0.30925925925925923],[1],[0],[0],[0.765760499984026],433.6960473000072,433.71095569990575,0.00031589996069669724,434.0108087998815,435.14518509991467,[],[],[],[],[],[],,,,,,,,,,461212,001,2025-02-28_09h50.10.880,Foreperiod_task,2024.2.1post4,60.14697511920976,2025-02-28 09h50.31.669052 -0800,
31,0,31,[-0.5740740740740741],[-0.30925925925925923],[1],[0],[0],[2.2827533003874123],[],[],[],[],[],[],,,,1,0,1,0,31,0,31,0,435.1610270999372,,,,,,,,,,,,435.1455147000961,435.1610270999372,0.00026240013539791107,435.1610270999372,435.36084340000525,437.16108960006386,437.16108960006386,437.16108960006386,437.17760739987716,437.4290261999704,2,task,0.2827533003874123,[-0.5740740740740741],[-0.30925925925925923],[1],[0],[0],[2.2827533003874123],437.42951640021056,437.4442509999499,0.00035750027745962143,437.7441572002135,438.7786794002168,[],[],[],[],[],[],,,,,,,,,,461212,001,2025-02-28_09h50.10.880,Foreperiod_task,2024.2.1post4,60.14697511920976,2025-02-28 09h50.31.669052 -0800,
32,0,32,[-0.5740740740740741],[-0.30925925925925923],[1],[0],[0],[2.282677299808711],[],[],[],[],[],[],,,,1,0,1,0,32,0,32,0,438.7941820002161,,,,,,,,,,,,438.7789651998319,438.7941820002161,0.00022189971059560776,438.7941820002161,438.99420309998095,440.79418639978394,440.79418639978394,440.79418639978394,440.8110795998946,441.06239149998873,2,task,0.2826772998087108,[-0.5740740740740741],[-0.30925925925925923],[1],[0],[0],[2.282677299808711],441.0629182998091,441.0776557000354,0.00038430001586675644,441.3775638998486,442.7284678001888,[],[],[],[],[],[],,,,,,,,,,461212,001,2025-02-28_09h50.10.880,Foreperiod_task,2024.2.1post4,60.14697511920976,2025-02-28 09h50.31.669052 -0800,
33,0,33,[-0.575],[-0.30925925925925923],[1],[0],[0],[1.6497649000957608],[],[],[],[],[],[],,,,1,0,1,0,33,0,33,0,442.7445697002113,,,,,,,,,,,,442.7287580999546,442.7445697002113,0.00021219998598098755,442.7445697002113,442.9608880998567,444.1275712000206,444.1275712000206,444.1275712000206,444.1443321001716,444.3793020998128,1.396730841374114,task,0.25303405872164686,[-0.575],[-0.30925925925925923],[1],[0],[0],[1.6497649000957608],444.3797228001058,444.3943277997896,0.0002935999073088169,444.6942455000244,445.594994999934,[],[],[],[],[],[],,,,,,,,,,461212,001,2025-02-28_09h50.10.880,Foreperiod_task,2024.2.1post4,60.14697511920976,2025-02-28 09h50.31.669052 -0800,
34,0,34,[-0.575925925925926],[-0.30925925925925923],[1],[0],[0],[2.2995849000290036],[],[],[],[],[],[],,,,1,0,1,0,34,0,34,0,445.61098260013387,,,,,,,,,,,,445.5952912000939,445.61098260013387,0.00023170001804828644,445.61098260013387,445.8108673999086,447.61090049985796,447.61090049985796,447.61090049985796,447.62756730010733,447.8956157998182,2,task,0.2995849000290036,[-0.575925925925926],[-0.30925925925925923],[1],[0],[0],[2.2995849000290036],447.89603399997577,447.9109994000755,0.00026789959520101547,448.21094070002437,449.39494709996507,[],[],[],[],[],[],,,,,,,,,,461212,001,2025-02-28_09h50.10.880,Foreperiod_task,2024.2.1post4,60.14697511920976,2025-02-28 09h50.31.669052 -0800,
35,0,35,[-0.5768518518518518],[-0.31203703703703706],[1],[0],[0],[2.249790099915117],[],[],[],[],[],[],,,,1,0,1,0,35,0,35,0,449.4109734999947,,,,,,,,,,,,449.39527049986646,449.4109734999947,0.0002536000683903694,449.4109734999947,449.61084569990635,451.3943202001974,451.3943202001974,451.3943202001974,451.4110694001429,451.6458964999765,2,task,0.24979009991511703,[-0.5768518518518518],[-0.31203703703703706],[1],[0],[0],[2.249790099915117],451.6463155001402,451.66098440019414,0.0002607000060379505,451.9610366001725,452.9282967997715,[],[],[],[],[],[],,,,,,,,,,461212,001,2025-02-28_09h50.10.880,Foreperiod_task,2024.2.1post4,60.14697511920976,2025-02-28 09h50.31.669052 -0800,
36,0,36,[-0.5805555555555556],[-0.3101851851851852],[1],[0],[0],[0.8155493997037411],[],[],[],[],[],[],,,,1,0,1,0,36,0,36,0,452.94367880001664,,,,,,,,,,,,452.92861580010504,452.94367880001664,0.0002480996772646904,452.94367880001664,453.1443166998215,453.4276219997555,453.4276219997555,453.4276219997555,453.44443209981546,453.7447660001926,0.5,task,0.3155493997037411,[-0.5805555555555556],[-0.3101851851851852],[1],[0],[0],[0.8155493997037411],453.7451058002189,453.7609235001728,0.0002577998675405979,454.0608753999695,455.4283639998175,[],[],[],[],[],[],,,,,,,,,,461212,001,2025-02-28_09h50.10.880,Foreperiod_task,2024.2.1post4,60.14697511920976,2025-02-28 09h50.31.669052 -0800,
37,0,37,[-0.5805555555555556],[-0.3101851851851852],[1],[0],[0],[2.2329028001986444],[],[],[],[],[],[],,,,1,0,1,0,37,0,37,0,455.44423040002584,,,,,,,,,,,,455.42869429988787,455.44423040002584,0.0002568000927567482,455.44423040002584,455.6441692998633,457.4276685998775,457.4276685998775,457.4276685998775,457.44433860015124,457.6623832001351,2,task,0.2329028001986444,[-0.5805555555555556],[-0.3101851851851852],[1],[0],[0],[2.2329028001986444],457.6628351002,457.6777777997777,0.00029819970950484276,457.9775299998,458.86174720013514,[],[],[],[],[],[],,,,,,,,,,461212,001,2025-02-28_09h50.10.880,Foreperiod_task,2024.2.1post4,60.14697511920976,2025-02-28 09h50.31.669052 -0800,
38,0,38,[-0.5814814814814815],[-0.3101851851851852],[1],[0],[0],[2.299490099772811],[],[],[],[],[],[],,,,1,0,1,0,38,0,38,0,458.87764219986275,,,,,,,,,,,,458.8620851999149,458.87764219986275,0.0002641999162733555,458.87764219986275,459.0776102999225,460.87780580017716,460.87780580017716,460.87780580017716,460.8942570001818,461.16237010015175,2,task,0.29949009977281094,[-0.5814814814814815],[-0.3101851851851852],[1],[0],[0],[2.299490099772811],461.16280530020595,461.1775128999725,0.00030300021171569824,461.4776857001707,462.79515800019726,[],[],[],[],[],[],,,,,,,,,,461212,001,2025-02-28_09h50.10.880,Foreperiod_task,2024.2.1post4,60.14697511920976,2025-02-28 09h50.31.669052 -0800,
39,0,39,[-0.5833333333333334],[-0.3101851851851852],[1],[0],[0],[2.249516499694437],[],[],[],[],[],[],,,,1,0,1,0,39,0,39,0,462.8107412997633,,,,,,,,,,,,462.79551029996946,462.8107412997633,0.00027030007913708687,462.8107412997633,463.01079649990425,464.7942576999776,464.7942576999776,464.7942576999776,464.81092040007934,465.0459281997755,2,task,0.2495164996944368,[-0.5833333333333334],[-0.3101851851851852],[1],[0],[0],[2.249516499694437],465.046345599927,465.0609860997647,0.0002465001307427883,465.3609740999527,466.5784541000612,[],[],[],[],[],[],,,,,,,,,,461212,001,2025-02-28_09h50.10.880,Foreperiod_task,2024.2.1post4,60.14697511920976,2025-02-28 09h50.31.669052 -0800,
40,0,40,[-0.5944444444444444],[-0.29814814814814816],[1],[0],[0],[0.8160378001630306],[],[],[],[],[],[],,,,1,0,1,0,40,0,40,0,466.5943106999621,,,,,,,,,,,,466.57882530009374,466.5943106999621,0.000309700146317482,466.5943106999621,466.7943839998916,467.077681499999,467.077681499999,467.077681499999,467.09458660008386,467.39553660014644,0.5,task,0.3160378001630306,[-0.5944444444444444],[-0.29814814814814816],[1],[0],[0],[0.8160378001630306],467.39598450018093,467.4109899001196,0.000327100045979023,467.7109495000914,468.7282968000509,[],[],[],[],[],[],,,,,,,,,,461212,001,2025-02-28_09h50.10.880,Foreperiod_task,2024.2.1post4,60.14697511920976,2025-02-28 09h50.31.669052 -0800,
41,0,41,[-0.5944444444444444],[-0.29814814814814816],[1],[0],[0],[1.5000942000187933],[],[],[],[],[],[],,,,1,0,1,0,41,0,41,0,468.7443531998433,,,,,,,,,,,,468.7286096997559,468.7443531998433,0.00024429988116025925,468.7443531998433,468.9446658999659,469.9601493999362,469.9601493999362,469.9601493999362,469.976881199982,470.22951890015975,1.2240418915026001,task,0.2760523085161932,[-0.5944444444444444],[-0.29814814814814816],[1],[0],[0],[1.5000942000187933],470.23003340000287,470.2443523001857,0.0003891000524163246,470.544345300179,471.4783813999966,[],[],[],[],[],[],,,,,,,,,,461212,001,2025-02-28_09h50.10.880,Foreperiod_task,2024.2.1post4,60.14697511920976,2025-02-28 09h50.31.669052 -0800,
42,0,42,[-0.5944444444444444],[-0.29814814814814816],[1],[0],[0],[2.2664367998950183],[],[],[],[],[],[],,,,1,0,1,0,42,0,42,0,471.49429140007123,,,,,,,,,,,,471.4786843000911,471.49429140007123,0.00023509981110692024,471.49429140007123,471.69441200001165,473.47781000006944,473.47781000006944,473.47781000006944,473.49456930020824,473.74597149994224,2,task,0.26643679989501834,[-0.5944444444444444],[-0.29814814814814816],[1],[0],[0],[2.2664367998950183],473.74640050018206,473.76118719996884,0.0002757003530859947,474.06033119978383,475.1954291998409,[],[],[],[],[],[],,,,,,,,,,461212,001,2025-02-28_09h50.10.880,Foreperiod_task,2024.2.1post4,60.14697511920976,2025-02-28 09h50.31.669052 -0800,
