thisN,thisTrialN,thisRepN,mouse.x,mouse.y,mouse.leftButton,mouse.midButton,mouse.rightButton,mouse.time,Intertrial_Mouse.x,Intertrial_Mouse.y,Intertrial_Mouse.leftButton,Intertrial_Mouse.midButton,Intertrial_Mouse.rightButton,Intertrial_Mouse.time,key_resp_5.keys,key_resp_5.rt,key_resp_5.duration,trials_3.thisRepN,trials_3.thisTrialN,trials_3.thisN,trials_3.thisIndex,trials_2.thisRepN,trials_2.thisTrialN,trials_2.thisN,trials_2.thisIndex,thisRow.t,notes,Welcome_Screen.started,Welcome_Text.started,mouse_2.started,Welcome_Screen.stopped,mouse_2.x,mouse_2.y,mouse_2.leftButton,mouse_2.midButton,mouse_2.rightButton,mouse_2.time,Trial_2.started,PLUS_FP.started,mouse.started,Photodiode_plus.started,Photodiode_plus.stopped,PLUS_FP.stopped,polygon.started,Photodiode_polygon.started,Photodiode_polygon.stopped,Trial_2.stopped,FixDur,Type,RT,trials_2.mouse.x,trials_2.mouse.y,trials_2.mouse.leftButton,trials_2.mouse.midButton,trials_2.mouse.rightButton,trials_2.mouse.time,Intertrial_Period.started,Photodiode_2.started,Intertrial_Mouse.started,Photodiode_2.stopped,Intertrial_Period.stopped,trials_2.Intertrial_Mouse.x,trials_2.Intertrial_Mouse.y,trials_2.Intertrial_Mouse.leftButton,trials_2.Intertrial_Mouse.midButton,trials_2.Intertrial_Mouse.rightButton,trials_2.Intertrial_Mouse.time,text.started,BREAK.started,key_resp_5.started,text_3.started,BREAK.stopped,trials_3.key_resp_5.keys,trials_3.key_resp_5.rt,trials_3.key_resp_5.duration,text.stopped,participant,session,date,expName,psychopyVersion,frameRate,expStart,
,,,,,,,,,,,,,,,,,,,,,,,,,,,,0.0028828000649809837,0.01671059988439083,0.0027194004505872726,23.104391999542713,[-0.23055555555555557],[0.06759259259259259],[1],[0],[0],[23.100866300053895],,,,,,,,,,,,,,,,,,,,,,,,,,,,,,,,,,,,,,,,617985,001,2024-12-03_13h49.43.100,Foreperiod_task,2024.2.1post4,60.068213507155185,2024-12-03 13h50.05.488214 -0800,
0,0,0,[-0.23055555555555557],[0.06759259259259259],[1],[0],[0],[2.3991211000829935],[],[],[],[],[],[],,,,0,0,0,0,0,0,0,0,23.120224099606276,,,,,,,,,,,,23.10710319969803,23.120224099606276,0.0025638993829488754,23.120224099606276,23.320456099696457,25.104981099255383,25.104981099255383,25.104981099255383,25.121842499822378,25.50705499947071,2,normal,0.3991211000829935,[-0.23055555555555557],[0.06759259259259259],[1],[0],[0],[2.3991211000829935],25.507558399811387,25.52190489973873,0.00036720000207424164,25.822315399535,26.70726879965514,[],[],[],[],[],[],,,,,,,,,,617985,001,2024-12-03_13h49.43.100,Foreperiod_task,2024.2.1post4,60.068213507155185,2024-12-03 13h50.05.488214 -0800,
1,0,1,[-0.23055555555555557],[0.06759259259259259],[1],[0],[0],[2.3012853004038334],[],[],[],[],[],[],,,,0,0,0,0,1,0,1,0,26.723193399608135,,,,,,,,,,,,26.707639100030065,26.723193399608135,0.00028320029377937317,26.723193399608135,26.923136299476027,28.708124599419534,28.708124599419534,28.708124599419534,28.72465429920703,29.009788499213755,2,normal,0.3012853004038334,[-0.23055555555555557],[0.06759259259259259],[1],[0],[0],[2.3012853004038334],29.010331799276173,29.02510629966855,0.0003960002213716507,29.32514759991318,30.577016599476337,[],[],[],[],[],[],,,,,,,,,,617985,001,2024-12-03_13h49.43.100,Foreperiod_task,2024.2.1post4,60.068213507155185,2024-12-03 13h50.05.488214 -0800,
2,0,2,[-0.23055555555555557],[0.06759259259259259],[1],[0],[0],[0.8669213000684977],[],[],[],[],[],[],,,,0,0,0,0,2,0,2,0,30.592869699932635,,,,,,,,,,,,30.577391899190843,30.592869699932635,0.00030170008540153503,30.592869699932635,30.79303709976375,31.07669149991125,31.07669149991125,31.07669149991125,31.093297599814832,31.44514760002494,0.5,normal,0.36692130006849766,[-0.23055555555555557],[0.06759259259259259],[1],[0],[0],[0.8669213000684977],31.445696199312806,31.46038769930601,0.0004233000800013542,31.760715499520302,32.82878949958831,[],[],[],[],[],[],,,,,,,,,,617985,001,2024-12-03_13h49.43.100,Foreperiod_task,2024.2.1post4,60.068213507155185,2024-12-03 13h50.05.488214 -0800,
3,0,3,[-0.23055555555555557],[0.06759259259259259],[1],[0],[0],[2.334531900472939],[],[],[],[],[],[],,,,0,0,0,0,3,0,3,0,32.84482969995588,,,,,,,,,,,,32.829167399555445,32.84482969995588,0.0003078998997807503,32.84482969995588,33.045036300085485,34.82977679930627,34.82977679930627,34.82977679930627,34.84648069925606,35.16455749981105,2,normal,0.334531900472939,[-0.23055555555555557],[0.06759259259259259],[1],[0],[0],[2.334531900472939],35.16506520006806,35.179557799361646,0.0003621000796556473,35.480288699269295,36.748812600038946,[],[],[],[],[],[],,,,,,,,,,617985,001,2024-12-03_13h49.43.100,Foreperiod_task,2024.2.1post4,60.068213507155185,2024-12-03 13h50.05.488214 -0800,
4,0,4,[-0.23055555555555557],[0.06759259259259259],[1],[0],[0],[0.8837395999580622],[],[],[],[],[],[],,,,0,0,0,0,4,0,4,0,36.76473489962518,,,,,,,,,,,,36.74923299998045,36.76473489962518,0.0003420999273657799,36.76473489962518,36.96481059957296,37.24868829920888,37.24868829920888,37.24868829920888,37.26535359956324,37.633809600025415,0.5,normal,0.38373959995806217,[-0.23055555555555557],[0.06759259259259259],[1],[0],[0],[0.8837395999580622],37.63454769924283,37.648933599703014,0.0006311004981398582,37.949019299820065,39.03395609930158,[],[],[],[],[],[],,,,,,,,,,617985,001,2024-12-03_13h49.43.100,Foreperiod_task,2024.2.1post4,60.068213507155185,2024-12-03 13h50.05.488214 -0800,
5,0,5,[-0.23055555555555557],[0.06759259259259259],[1],[0],[0],[1.834812699817121],[],[],[],[],[],[],,,,0,0,0,0,5,0,5,0,39.050021099857986,,,,,,,,,,,,39.03432849980891,39.050021099857986,0.0002680998295545578,39.050021099857986,39.249982099980116,40.53505629952997,40.53505629952997,40.53505629952997,40.55121619999409,40.86997309979051,1.489490723512716,surprise,0.3453219763044051,[-0.23055555555555557],[0.06759259259259259],[1],[0],[0],[1.834812699817121],40.87050309963524,40.88493189960718,0.00037079956382513046,41.1850517001003,42.370103700086474,[],[],[],[],[],[],,,,,,,,,,617985,001,2024-12-03_13h49.43.100,Foreperiod_task,2024.2.1post4,60.068213507155185,2024-12-03 13h50.05.488214 -0800,
6,0,6,[-0.23055555555555557],[0.06759259259259259],[1],[0],[0],[2.317838800139725],[],[],[],[],[],[],,,,0,0,0,0,6,0,6,0,42.386122999712825,,,,,,,,,,,,42.37042419984937,42.386122999712825,0.0002491995692253113,42.386122999712825,42.58645779918879,44.37122819945216,44.37122819945216,44.37122819945216,44.38789919950068,44.689081399701536,2,normal,0.3178388001397252,[-0.23055555555555557],[0.06759259259259259],[1],[0],[0],[2.317838800139725],44.689814699813724,44.70497589930892,0.0005481000989675522,45.00493500009179,46.07335209939629,[],[],[],[],[],[],,,,,,,,,,617985,001,2024-12-03_13h49.43.100,Foreperiod_task,2024.2.1post4,60.068213507155185,2024-12-03 13h50.05.488214 -0800,
7,0,7,[-0.23055555555555557],[0.06759259259259259],[1],[0],[0],[0.8168959002941847],[],[],[],[],[],[],,,,0,0,0,0,7,0,7,0,46.08910879958421,,,,,,,,,,,,46.073712199926376,46.08910879958421,0.00026850029826164246,46.08910879958421,46.289258799515665,46.57286629918963,46.57286629918963,46.57286629918963,46.58944119978696,46.89141919929534,0.5,normal,0.3168959002941847,[-0.23055555555555557],[0.06759259259259259],[1],[0],[0],[0.8168959002941847],46.891889199614525,46.90640679933131,0.00030930060893297195,47.20665629953146,48.458564300090075,[],[],[],[],[],[],,,,,,,,,,617985,001,2024-12-03_13h49.43.100,Foreperiod_task,2024.2.1post4,60.068213507155185,2024-12-03 13h50.05.488214 -0800,
8,0,8,[-0.23055555555555557],[0.06759259259259259],[1],[0],[0],[1.4341858997941017],[],[],[],[],[],[],,,,0,0,0,0,8,0,8,0,48.47444729972631,,,,,,,,,,,,48.458933900110424,48.47444729972631,0.00029319990426301956,48.47444729972631,48.6745961997658,49.52542149927467,49.52542149927467,49.52542149927467,49.54203009977937,49.894046699628234,1.0519275578164031,surprise,0.3822583419776986,[-0.23055555555555557],[0.06759259259259259],[1],[0],[0],[1.4341858997941017],49.89458670001477,49.90901600010693,0.00035720039159059525,50.20918559934944,51.26086139958352,[],[],[],[],[],[],,,,,,,,,,617985,001,2024-12-03_13h49.43.100,Foreperiod_task,2024.2.1post4,60.068213507155185,2024-12-03 13h50.05.488214 -0800,
9,0,9,[-0.23055555555555557],[0.06759259259259259],[1],[0],[0],[2.4182735001668334],[],[],[],[],[],[],,,,0,0,0,0,9,0,9,0,51.27669639978558,,,,,,,,,,,,51.26118139922619,51.27669639978558,0.0002513006329536438,51.27669639978558,51.47678169980645,53.26168520003557,53.26168520003557,53.26168520003557,53.27844729926437,53.680284599773586,2,normal,0.4182735001668334,[-0.23055555555555557],[0.06759259259259259],[1],[0],[0],[2.4182735001668334],53.68068469967693,53.695471899583936,0.0002456996589899063,53.99577349983156,54.99699370004237,[],[],[],[],[],[],,,,,,,,,,617985,001,2024-12-03_13h49.43.100,Foreperiod_task,2024.2.1post4,60.068213507155185,2024-12-03 13h50.05.488214 -0800,
10,0,10,[-0.23055555555555557],[0.06759259259259259],[1],[0],[0],[2.31840300001204],[],[],[],[],[],[],,,,0,0,0,0,10,0,10,0,55.013369099237025,,,,,,,,,,,,54.997326099313796,55.013369099237025,0.0002569993957877159,55.013369099237025,55.21318249963224,56.99835369922221,56.99835369922221,56.99835369922221,57.01507459953427,57.31643349956721,2,normal,0.31840300001204014,[-0.23055555555555557],[0.06759259259259259],[1],[0],[0],[2.31840300001204],57.31682009994984,57.33198469970375,0.0002517998218536377,57.632062499411404,58.71707659959793,[],[],[],[],[],[],,,,,,,,,,617985,001,2024-12-03_13h49.43.100,Foreperiod_task,2024.2.1post4,60.068213507155185,2024-12-03 13h50.05.488214 -0800,
11,0,11,[-0.23055555555555557],[0.06759259259259259],[1],[0],[0],[0.8502417001873255],[],[],[],[],[],[],,,,0,0,0,0,11,0,11,0,58.733192699961364,,,,,,,,,,,,58.71742029953748,58.733192699961364,0.0002564992755651474,58.733192699961364,58.93308799993247,59.216731399297714,59.216731399297714,59.216731399297714,59.233358699828386,59.56841279938817,0.5,normal,0.3502417001873255,[-0.23055555555555557],[0.06759259259259259],[1],[0],[0],[0.8502417001873255],59.5687609994784,59.58380689937621,0.00023449957370758057,59.884102899581194,60.868940900079906,[],[],[],[],[],[],,,,,,,,,,617985,001,2024-12-03_13h49.43.100,Foreperiod_task,2024.2.1post4,60.068213507155185,2024-12-03 13h50.05.488214 -0800,
12,0,12,[-0.23055555555555557],[0.06759259259259259],[1],[0],[0],[1.4669989999383688],[],[],[],[],[],[],,,,0,0,0,0,12,0,12,0,60.88473299983889,,,,,,,,,,,,60.86925709992647,60.88473299983889,0.00024929922074079514,60.88473299983889,61.08484449982643,62.01904449984431,62.01904449984431,62.01904449984431,62.03573150001466,62.33770289923996,1.1432129822435768,surprise,0.323786017694792,[-0.23055555555555557],[0.06759259259259259],[1],[0],[0],[1.4669989999383688],62.33816989976913,62.35268639959395,0.0003237994387745857,62.652825199998915,64.02170019969344,[],[],[],[],[],[],,,,,,,,,,617985,001,2024-12-03_13h49.43.100,Foreperiod_task,2024.2.1post4,60.068213507155185,2024-12-03 13h50.05.488214 -0800,
13,0,13,[-0.23055555555555557],[0.06759259259259259],[1],[0],[0],[0.8667615000158548],[],[],[],[],[],[],,,,0,0,0,0,13,0,13,0,64.03740549925715,,,,,,,,,,,,64.0221149995923,64.03740549925715,0.00032300036400556564,64.03740549925715,64.23763330001384,64.5213510999456,64.5213510999456,64.5213510999456,64.53834239952266,64.88964230008423,0.5,normal,0.36676150001585484,[-0.23055555555555557],[0.06759259259259259],[1],[0],[0],[0.8667615000158548],64.8900896999985,64.90485789999366,0.0003512995317578316,65.20501790009439,66.17319819983095,[],[],[],[],[],[],,,,,,,,,,617985,001,2024-12-03_13h49.43.100,Foreperiod_task,2024.2.1post4,60.068213507155185,2024-12-03 13h50.05.488214 -0800,
14,0,14,[-0.23055555555555557],[0.06759259259259259],[1],[0],[0],[0.8169297007843852],[],[],[],[],[],[],,,,0,0,0,0,14,0,14,0,66.18911809939891,,,,,,,,,,,,66.17357259988785,66.18911809939891,0.00029540061950683594,66.18911809939891,66.38924639951438,66.67289679963142,66.67289679963142,66.67289679963142,66.68964019976556,66.99119139928371,0.5,normal,0.3169297007843852,[-0.23055555555555557],[0.06759259259259259],[1],[0],[0],[0.8169297007843852],66.99156529922038,67.0065827993676,0.00025120005011558533,67.3066786993295,68.60861989948899,[],[],[],[],[],[],,,,,,,,,,617985,001,2024-12-03_13h49.43.100,Foreperiod_task,2024.2.1post4,60.068213507155185,2024-12-03 13h50.05.488214 -0800,
15,0,15,[-0.23055555555555557],[0.06759259259259259],[1],[0],[0],[2.3682840997353196],[],[],[],[],[],[],,,,0,0,0,0,15,0,15,0,68.62455569952726,,,,,,,,,,,,68.60896229930222,68.62455569952726,0.0002614995464682579,68.62455569952726,68.82471559941769,70.60948379989713,70.60948379989713,70.60948379989713,70.62614989932626,70.9780484996736,2,normal,0.3682840997353196,[-0.23055555555555557],[0.06759259259259259],[1],[0],[0],[2.3682840997353196],70.97850199975073,70.99321729969233,0.0002956995740532875,71.29344319924712,72.51188999973238,[],[],[],[],[],[],,,,,,,,,,617985,001,2024-12-03_13h49.43.100,Foreperiod_task,2024.2.1post4,60.068213507155185,2024-12-03 13h50.05.488214 -0800,
16,0,16,[-0.23055555555555557],[0.06759259259259259],[1],[0],[0],[2.351663799956441],[],[],[],[],[],[],,,,0,0,0,0,16,0,16,0,72.5276889000088,,,,,,,,,,,,72.512222699821,72.5276889000088,0.0002840999513864517,72.5276889000088,72.72791359946132,74.5127475997433,74.5127475997433,74.5127475997433,74.5295003997162,74.86470020003617,2,normal,0.3516637999564409,[-0.23055555555555557],[0.06759259259259259],[1],[0],[0],[2.351663799956441],74.86514189932495,74.8789639994502,0.00028639938682317734,75.18019809946418,76.49850459955633,[],[],[],[],[],[],,,,,,,,,,617985,001,2024-12-03_13h49.43.100,Foreperiod_task,2024.2.1post4,60.068213507155185,2024-12-03 13h50.05.488214 -0800,
17,0,17,[-0.23055555555555557],[0.06759259259259259],[1],[0],[0],[2.3515734001994133],[],[],[],[],[],[],,,,0,0,0,0,17,0,17,0,76.51440709922463,,,,,,,,,,,,76.49886019993573,76.51440709922463,0.00027929991483688354,76.51440709922463,76.71451019961387,78.49965299945325,78.49965299945325,78.49965299945325,78.51622019987553,78.85121889971197,2,normal,0.3515734001994133,[-0.23055555555555557],[0.06759259259259259],[1],[0],[0],[2.3515734001994133],78.8516440000385,78.86699480004609,0.00027900002896785736,79.16663879994303,80.38484849967062,[],[],[],[],[],[],,,,,,,,,,617985,001,2024-12-03_13h49.43.100,Foreperiod_task,2024.2.1post4,60.068213507155185,2024-12-03 13h50.05.488214 -0800,
18,0,18,[-0.23055555555555557],[0.06759259259259259],[1],[0],[0],[0.966886299662292],[],[],[],[],[],[],,,,0,0,0,0,18,0,18,0,80.40098899975419,,,,,,,,,,,,80.38518259953707,80.40098899975419,0.0002592001110315323,80.40098899975419,80.60084669943899,80.88462630007416,80.88462630007416,80.88462630007416,80.90070359967649,81.35292459931225,0.5,normal,0.466886299662292,[-0.23055555555555557],[0.06759259259259259],[1],[0],[0],[0.966886299662292],81.35339399985969,81.36847729980946,0.00032040011137723923,81.66871249955148,82.87047989945859,[],[],[],[],[],[],,,,,,,,,,617985,001,2024-12-03_13h49.43.100,Foreperiod_task,2024.2.1post4,60.068213507155185,2024-12-03 13h50.05.488214 -0800,
19,0,19,[-0.23055555555555557],[0.06759259259259259],[1],[0],[0],[2.4017126001417637],[],[],[],[],[],[],,,,0,0,0,0,19,0,19,0,82.88653420004994,,,,,,,,,,,,82.87080289982259,82.88653420004994,0.00024700071662664413,82.88653420004994,83.08659849967808,84.87136380001903,84.87136380001903,84.87136380001903,84.88818909972906,85.27335159946233,2,normal,0.4017126001417637,[-0.23055555555555557],[0.06759259259259259],[1],[0],[0],[2.4017126001417637],85.27382459957153,85.28842969983816,0.0003375997766852379,85.58850559964776,86.67373339924961,[],[],[],[],[],[],,,,,,,,,,617985,001,2024-12-03_13h49.43.100,Foreperiod_task,2024.2.1post4,60.068213507155185,2024-12-03 13h50.05.488214 -0800,
20,0,20,[-0.23055555555555557],[0.06759259259259259],[1],[0],[0],[1.3669237000867724],[],[],[],[],[],[],,,,0,0,0,0,20,0,20,0,86.68986149970442,,,,,,,,,,,,86.67405319958925,86.68986149970442,0.0002496996894478798,86.68986149970442,86.88973459973931,87.69041339959949,87.69041339959949,87.69041339959949,87.70711039938033,88.04159249924123,1.0113023931471017,surprise,0.35562130693967076,[-0.23055555555555557],[0.06759259259259259],[1],[0],[0],[1.3669237000867724],88.04197409935296,88.057158799842,0.00024640001356601715,88.35774429980665,89.30903849937022,[],[],[],[],[],[],,,,,,,,,,617985,001,2024-12-03_13h49.43.100,Foreperiod_task,2024.2.1post4,60.068213507155185,2024-12-03 13h50.05.488214 -0800,
21,0,21,[-0.23055555555555557],[0.06759259259259259],[1],[0],[0],[0.8002941003069282],[],[],[],[],[],[],,,,0,0,0,0,21,0,21,0,89.32503189984709,,,,,,,,,,,,89.3093830998987,89.32503189984709,0.0002717999741435051,89.32503189984709,89.52520560007542,89.80883600004017,89.80883600004017,89.80883600004017,89.82559329923242,90.11045709997416,0.5,normal,0.30029410030692816,[-0.23055555555555557],[0.06759259259259259],[1],[0],[0],[0.8002941003069282],90.11085609998554,90.12579869944602,0.00025239959359169006,90.42571629956365,91.3268387997523,[],[],[],[],[],[],,,,,,,,,,617985,001,2024-12-03_13h49.43.100,Foreperiod_task,2024.2.1post4,60.068213507155185,2024-12-03 13h50.05.488214 -0800,
22,0,22,[-0.23055555555555557],[0.06759259259259259],[1],[0],[0],[2.3357625994831324],[],[],[],[],[],[],,,,0,0,0,0,22,0,22,0,91.34365329984576,,,,,,,,,,,,91.3270147992298,91.34365329984576,0.00013300031423568726,91.34365329984576,91.54372319951653,93.32843019999564,93.32843019999564,93.32843019999564,93.34553339984268,93.6634858995676,2,normal,0.33576259948313236,[-0.23055555555555557],[0.06759259259259259],[1],[0],[0],[2.3357625994831324],93.6639279993251,93.67877319920808,0.0002911994233727455,93.97897229995579,94.88048039935529,[],[],[],[],[],[],,,,,,,,,,617985,001,2024-12-03_13h49.43.100,Foreperiod_task,2024.2.1post4,60.068213507155185,2024-12-03 13h50.05.488214 -0800,
23,0,23,[-0.23055555555555557],[0.06759259259259259],[1],[0],[0],[0.9340548999607563],[],[],[],[],[],[],,,,0,0,0,0,23,0,23,0,94.89647589996457,,,,,,,,,,,,94.88081809971482,94.89647589996457,0.00026659946888685226,94.89647589996457,95.09660059958696,95.38009139988571,95.38009139988571,95.38009139988571,95.39679659996182,95.81572519987822,0.5,normal,0.4340548999607563,[-0.23055555555555557],[0.06759259259259259],[1],[0],[0],[0.9340548999607563],95.81640499923378,95.83065999951214,0.0005385996773838997,96.13068479951471,97.46595419943333,[],[],[],[],[],[],,,,,,,,,,617985,001,2024-12-03_13h49.43.100,Foreperiod_task,2024.2.1post4,60.068213507155185,2024-12-03 13h50.05.488214 -0800,
24,0,24,[-0.23055555555555557],[0.06759259259259259],[1],[0],[0],[2.3349163001403213],[],[],[],[],[],[],,,,0,0,0,0,24,0,24,0,97.48160489927977,,,,,,,,,,,,97.46629009954631,97.48160489927977,0.0002543991431593895,97.48160489927977,97.68212029989809,99.46622340008616,99.46622340008616,99.46622340008616,99.48327119927853,99.80205419939011,2,normal,0.33491630014032125,[-0.23055555555555557],[0.06759259259259259],[1],[0],[0],[2.3349163001403213],99.8024335000664,99.81716739945114,0.0002545006573200226,100.11746029928327,101.10126599948853,[],[],[],[],[],[],,,,,,,,,,617985,001,2024-12-03_13h49.43.100,Foreperiod_task,2024.2.1post4,60.068213507155185,2024-12-03 13h50.05.488214 -0800,
25,0,25,[-0.23055555555555557],[0.06759259259259259],[1],[0],[0],[0.9016682002693415],[],[],[],[],[],[],,,,0,0,0,0,25,0,25,0,101.11796279996634,,,,,,,,,,,,101.10144739970565,101.11796279996634,0.00014749914407730103,101.11796279996634,101.31868019979447,101.60207769926637,101.60207769926637,101.60207769926637,101.61868989933282,102.00356539990753,0.5,normal,0.40166820026934147,[-0.23055555555555557],[0.06759259259259259],[1],[0],[0],[0.9016682002693415],102.00372689962387,102.01824399922043,0.00011279992759227753,102.31927759945393,103.42089169938117,[],[],[],[],[],[],,,,,,,,,,617985,001,2024-12-03_13h49.43.100,Foreperiod_task,2024.2.1post4,60.068213507155185,2024-12-03 13h50.05.488214 -0800,
26,0,26,[-0.7944444444444444],[-0.43796296296296294],[1],[0],[0],[2.318330000154674],[],[],[],[],[],[],,,,0,0,0,0,26,0,26,0,103.43711449950933,,,,,,,,,,,,103.42121039982885,103.43711449950933,0.0002485997974872589,103.43711449950933,103.63724599964917,105.42195570003241,105.42195570003241,105.42195570003241,105.43877679947764,105.74031780008227,2,normal,0.31833000015467405,[-0.7944444444444444],[-0.43796296296296294],[1],[0],[0],[2.318330000154674],105.74106229934841,105.75539699941874,0.000287800095975399,106.05553360003978,107.27420069929212,[],[],[],[],[],[],,,,,,,,,,617985,001,2024-12-03_13h49.43.100,Foreperiod_task,2024.2.1post4,60.068213507155185,2024-12-03 13h50.05.488214 -0800,
27,0,27,[-0.7944444444444444],[-0.43796296296296294],[1],[0],[0],[2.2847497994080186],[],[],[],[],[],[],,,,0,0,0,0,27,0,27,0,107.29001639969647,,,,,,,,,,,,107.27456629928201,107.29001639969647,0.00027949921786785126,107.29001639969647,107.4901035996154,109.27507779933512,109.27507779933512,109.27507779933512,109.29174019955099,109.56049169972539,2,normal,0.2847497994080186,[-0.7944444444444444],[-0.43796296296296294],[1],[0],[0],[2.2847497994080186],109.56107569951564,109.57537150010467,0.0004664994776248932,109.87557139992714,110.97595079988241,[],[],[],[],[],[],,,,,,,,,,617985,001,2024-12-03_13h49.43.100,Foreperiod_task,2024.2.1post4,60.068213507155185,2024-12-03 13h50.05.488214 -0800,
28,0,28,[-0.7944444444444444],[-0.43796296296296294],[1],[0],[0],[0.8185853008180857],[],[],[],[],[],[],,,,0,0,0,0,28,0,28,0,110.99263700004667,,,,,,,,,,,,110.97607829980552,110.99263700004667,9.67998057603836e-05,110.99263700004667,111.19323919992894,111.47683279961348,111.47683279961348,111.47683279961348,111.49352989997715,111.79534919932485,0.5,normal,0.31858530081808567,[-0.7944444444444444],[-0.43796296296296294],[1],[0],[0],[0.8185853008180857],111.79573299922049,111.81049629952759,0.0002498999238014221,112.11059829965234,113.07890279963613,[],[],[],[],[],[],,,,,,,,,,617985,001,2024-12-03_13h49.43.100,Foreperiod_task,2024.2.1post4,60.068213507155185,2024-12-03 13h50.05.488214 -0800,
29,0,29,[-0.7944444444444444],[-0.43796296296296294],[1],[0],[0],[2.3187447004020214],[],[],[],[],[],[],,,,0,0,0,0,29,0,29,0,113.09492189995944,,,,,,,,,,,,113.0792327998206,113.09492189995944,0.00025800056755542755,113.09492189995944,113.29494439996779,115.08004379924387,115.08004379924387,115.08004379924387,115.09660500008613,115.39874240010977,2,normal,0.3187447004020214,[-0.7944444444444444],[-0.43796296296296294],[1],[0],[0],[2.3187447004020214],115.39922839961946,115.4136124998331,0.0003168005496263504,115.71369979996234,116.78213019948453,[],[],[],[],[],[],,,,,,,,,,617985,001,2024-12-03_13h49.43.100,Foreperiod_task,2024.2.1post4,60.068213507155185,2024-12-03 13h50.05.488214 -0800,
30,0,30,[-0.7944444444444444],[-0.43796296296296294],[1],[0],[0],[0.8156890003010631],[],[],[],[],[],[],,,,0,0,0,0,30,0,30,0,116.7979710996151,,,,,,,,,,,,116.78248749952763,116.7979710996151,0.0002691000699996948,116.7979710996151,116.99720849934965,117.2817907994613,117.2817907994613,117.2817907994613,117.29846569988877,117.59874049946666,0.5,normal,0.31568900030106306,[-0.7944444444444444],[-0.43796296296296294],[1],[0],[0],[0.8156890003010631],117.59897779952735,117.61477129999548,0.00015540048480033875,117.91550529934466,119.05072980001569,[],[],[],[],[],[],,,,,,,,,,617985,001,2024-12-03_13h49.43.100,Foreperiod_task,2024.2.1post4,60.068213507155185,2024-12-03 13h50.05.488214 -0800,
31,0,31,[-0.7944444444444444],[-0.43796296296296294],[1],[0],[0],[2.318113999441266],[],[],[],[],[],[],,,,0,0,0,0,31,0,31,0,119.06673269998282,,,,,,,,,,,,119.05109829921275,119.06673269998282,0.0002814996987581253,119.06673269998282,119.26660569943488,121.05162720009685,121.05162720009685,121.05162720009685,121.06823869980872,121.37021029926836,2,normal,0.31811399944126606,[-0.7944444444444444],[-0.43796296296296294],[1],[0],[0],[2.318113999441266],121.37079309951514,121.38516279961914,0.0004230998456478119,121.68551249988377,122.67025689966977,[],[],[],[],[],[],,,,,,,,,,617985,001,2024-12-03_13h49.43.100,Foreperiod_task,2024.2.1post4,60.068213507155185,2024-12-03 13h50.05.488214 -0800,
32,0,32,[-0.7944444444444444],[-0.43796296296296294],[1],[0],[0],[2.3021044991910458],[],[],[],[],[],[],,,,0,0,0,0,32,0,32,0,122.68617719970644,,,,,,,,,,,,122.67059159930795,122.68617719970644,0.00026539992541074753,122.68617719970644,122.88633489981294,124.67117499932647,124.67117499932647,124.67117499932647,124.68794269952923,124.97362140007317,2,normal,0.30210449919104576,[-0.7944444444444444],[-0.43796296296296294],[1],[0],[0],[2.3021044991910458],124.97412979975343,124.98814359959215,0.00033709965646266937,125.2883232999593,126.44042779970914,[],[],[],[],[],[],,,,,,,,,,617985,001,2024-12-03_13h49.43.100,Foreperiod_task,2024.2.1post4,60.068213507155185,2024-12-03 13h50.05.488214 -0800,
33,0,33,[-0.8],[-0.4666666666666667],[1],[0],[0],[0.816011699847877],[],[],[],[],[],[],,,,0,0,0,0,33,0,33,0,126.45560899935663,,,,,,,,,,,,126.44079890009016,126.45560899935663,0.00028830021619796753,126.45560899935663,126.65621729940176,126.93977939989418,126.93977939989418,126.93977939989418,126.9566054996103,127.25779079925269,0.5,normal,0.316011699847877,[-0.8],[-0.4666666666666667],[1],[0],[0],[0.816011699847877],127.25819859933108,127.27339189965278,0.00028410088270902634,127.57365899998695,128.7585387993604,[],[],[],[],[],[],,,,,,,,,,617985,001,2024-12-03_13h49.43.100,Foreperiod_task,2024.2.1post4,60.068213507155185,2024-12-03 13h50.05.488214 -0800,
34,0,34,[-0.8],[-0.4666666666666667],[1],[0],[0],[0.8169416002929211],[],[],[],[],[],[],,,,0,0,0,0,34,0,34,0,128.7744504995644,,,,,,,,,,,,128.75894439965487,128.7744504995644,0.0002719992771744728,128.7744504995644,128.97489179950207,129.258411699906,129.258411699906,129.258411699906,129.2749806996435,129.57663269992918,0.5,normal,0.31694160029292107,[-0.8],[-0.4666666666666667],[1],[0],[0],[0.8169416002929211],129.57702429965138,129.59176549967378,0.0002663005143404007,129.8920996999368,131.06053119990975,[],[],[],[],[],[],,,,,,,,,,617985,001,2024-12-03_13h49.43.100,Foreperiod_task,2024.2.1post4,60.068213507155185,2024-12-03 13h50.05.488214 -0800,
35,0,35,[-0.8],[-0.4666666666666667],[1],[0],[0],[0.8000305006280541],[],[],[],[],[],[],,,,0,0,0,0,35,0,35,0,131.0764464996755,,,,,,,,,,,,131.06087939999998,131.0764464996755,0.00025690067559480667,131.0764464996755,131.27655339986086,131.56020249985158,131.56020249985158,131.56020249985158,131.57691540010273,131.8615407999605,0.5,normal,0.30003050062805414,[-0.8],[-0.4666666666666667],[1],[0],[0],[0.8000305006280541],131.8618701994419,131.87709870003164,0.00021799933165311813,132.1773315994069,133.16215460002422,[],[],[],[],[],[],,,,,,,,,,617985,001,2024-12-03_13h49.43.100,Foreperiod_task,2024.2.1post4,60.068213507155185,2024-12-03 13h50.05.488214 -0800,
36,0,36,[-0.8],[-0.4666666666666667],[1],[0],[0],[2.318169300444424],[],[],[],[],[],[],,,,0,0,0,0,36,0,36,0,133.17782899923623,,,,,,,,,,,,133.16247739922255,133.17782899923623,0.00023359991610050201,133.17782899923623,133.37843349948525,135.1632739994675,135.1632739994675,135.1632739994675,135.17990029975772,135.48129399958998,2,normal,0.31816930044442415,[-0.8],[-0.4666666666666667],[1],[0],[0],[2.318169300444424],135.48163409996778,135.4972077999264,0.00023570004850625992,135.79741339944303,136.94870319962502,[],[],[],[],[],[],,,,,,,,,,617985,001,2024-12-03_13h49.43.100,Foreperiod_task,2024.2.1post4,60.068213507155185,2024-12-03 13h50.05.488214 -0800,
37,0,37,[-0.8],[-0.4666666666666667],[1],[0],[0],[2.301753199659288],[],[],[],[],[],[],,,,0,0,0,0,37,0,37,0,136.96466429997236,,,,,,,,,,,,136.94909029919654,136.96466429997236,0.0002703005447983742,136.96466429997236,137.16502169985324,138.94990989938378,138.94990989938378,138.94990989938378,138.9665423994884,139.2515829000622,2,normal,0.30175319965928793,[-0.8],[-0.4666666666666667],[1],[0],[0],[2.301753199659288],139.25200049951673,139.26625609956682,0.0002902001142501831,139.56679559964687,140.90216749999672,[],[],[],[],[],[],,,,,,,,,,617985,001,2024-12-03_13h49.43.100,Foreperiod_task,2024.2.1post4,60.068213507155185,2024-12-03 13h50.05.488214 -0800,
38,0,38,[-0.8],[-0.4666666666666667],[1],[0],[0],[0.8171041002497077],[],[],[],[],[],[],,,,0,0,0,0,38,0,38,0,140.91797359939665,,,,,,,,,,,,140.90248849987984,140.91797359939665,0.0002608001232147217,140.91797359939665,141.11819819919765,141.40190569963306,141.40190569963306,141.40190569963306,141.41853549983352,141.72054750006646,0.5,normal,0.3171041002497077,[-0.8],[-0.4666666666666667],[1],[0],[0],[0.8171041002497077],141.72110369987786,141.73539720010012,0.0003995997831225395,142.0347759993747,143.22022609971464,[],[],[],[],[],[],,,,,,,,,,617985,001,2024-12-03_13h49.43.100,Foreperiod_task,2024.2.1post4,60.068213507155185,2024-12-03 13h50.05.488214 -0800,
39,0,39,[-0.8],[-0.4666666666666667],[1],[0],[0],[0.8176839994266629],[],[],[],[],[],[],,,,0,0,0,0,39,0,39,0,143.23645589966327,,,,,,,,,,,,143.22049519978464,143.23645589966327,0.00019589997828006744,143.23645589966327,143.43684200011194,143.72055209986866,143.72055209986866,143.72055209986866,143.73697989992797,144.03871480003,0.5,normal,0.3176839994266629,[-0.8],[-0.4666666666666667],[1],[0],[0],[0.8176839994266629],144.03902229946107,144.05326019972563,0.00021310057491064072,144.35433440003544,145.40573429968208,[],[],[],[],[],[],,,,,,,,,,617985,001,2024-12-03_13h49.43.100,Foreperiod_task,2024.2.1post4,60.068213507155185,2024-12-03 13h50.05.488214 -0800,
40,0,40,[-0.8],[-0.4666666666666667],[1],[0],[0],[0.8173043997958302],[],[],[],[],[],[],,,,0,0,0,0,40,0,40,0,145.4218365997076,,,,,,,,,,,,145.4060456994921,145.4218365997076,0.0002455003559589386,145.4218365997076,145.6219729995355,145.9055274995044,145.9055274995044,145.9055274995044,145.92215989995748,146.22408000007272,0.5,normal,0.31730439979583025,[-0.8],[-0.4666666666666667],[1],[0],[0],[0.8173043997958302],146.2244790000841,146.23908449988812,0.0002848999574780464,146.5394770996645,147.6578947994858,[],[],[],[],[],[],,,,,,,,,,617985,001,2024-12-03_13h49.43.100,Foreperiod_task,2024.2.1post4,60.068213507155185,2024-12-03 13h50.05.488214 -0800,
41,0,41,[-0.8],[-0.4666666666666667],[1],[0],[0],[0.7993085002526641],[],[],[],[],[],[],,,,0,0,0,0,41,0,41,0,147.673620400019,,,,,,,,,,,,147.65827929973602,147.673620400019,0.0003049001097679138,147.673620400019,147.87406829930842,148.17359900008887,148.17359900008887,148.17359900008887,148.19106499943882,148.45803069975227,0.5,normal,0.2993085002526641,[-0.8],[-0.4666666666666667],[1],[0],[0],[0.7993085002526641],148.45820669922978,148.47361479979008,0.00011929962784051895,148.77488679997623,149.7927393000573,[],[],[],[],[],[],,,,,,,,,,617985,001,2024-12-03_13h49.43.100,Foreperiod_task,2024.2.1post4,60.068213507155185,2024-12-03 13h50.05.488214 -0800,
42,0,42,[-0.8],[-0.4666666666666667],[1],[0],[0],[0.8003875995054841],[],[],[],[],[],[],,,,0,0,0,0,42,0,42,0,149.80880869925022,,,,,,,,,,,,149.79307959973812,149.80880869925022,0.0002725999802350998,149.80880869925022,150.00887749996036,150.29293549992144,150.29293549992144,150.29293549992144,150.30928299948573,150.59425400011241,0.5,normal,0.3003875995054841,[-0.8],[-0.4666666666666667],[1],[0],[0],[0.8003875995054841],150.59469789918512,150.60948939993978,0.00031749997287988663,150.90933909919113,152.06132399942726,[],[],[],[],[],[],,,,,,,,,,617985,001,2024-12-03_13h49.43.100,Foreperiod_task,2024.2.1post4,60.068213507155185,2024-12-03 13h50.05.488214 -0800,
43,0,43,[-0.8],[-0.4666666666666667],[1],[0],[0],[2.4183516995981336],[],[],[],[],[],[],,,,0,0,0,0,43,0,43,0,152.07691869977862,,,,,,,,,,,,152.0616550995037,152.07691869977862,0.0002621002495288849,152.07691869977862,152.27749609947205,154.06225609965622,154.06225609965622,154.06225609965622,154.07849479932338,154.48086589947343,2,normal,0.41835169959813356,[-0.8],[-0.4666666666666667],[1],[0],[0],[2.4183516995981336],154.48146769963205,154.49629839975387,0.0004655001685023308,154.79627820011228,156.0146137997508,[],[],[],[],[],[],,,,,,,,,,617985,001,2024-12-03_13h49.43.100,Foreperiod_task,2024.2.1post4,60.068213507155185,2024-12-03 13h50.05.488214 -0800,
44,0,44,[-0.8],[-0.4666666666666667],[1],[0],[0],[0.8169837994500995],[],[],[],[],[],[],,,,0,0,0,0,44,0,44,0,156.0306319994852,,,,,,,,,,,,156.01498669944704,156.0306319994852,0.00030090007930994034,156.0306319994852,156.23073979932815,156.51449569966644,156.51449569966644,156.51449569966644,156.53096159920096,156.8326856000349,0.5,normal,0.31698379945009947,[-0.8],[-0.4666666666666667],[1],[0],[0],[0.8169837994500995],156.83303689956665,156.84792519919574,0.00022460054606199265,157.1481023998931,158.4333405001089,[],[],[],[],[],[],,,,,,,,,,617985,001,2024-12-03_13h49.43.100,Foreperiod_task,2024.2.1post4,60.068213507155185,2024-12-03 13h50.05.488214 -0800,
45,0,45,[-0.8],[-0.4666666666666667],[1],[0],[0],[2.3180921003222466],[],[],[],[],[],[],,,,0,0,0,0,45,0,45,0,158.44925839919597,,,,,,,,,,,,158.43365739937872,158.44925839919597,0.0002456996589899063,158.44925839919597,158.64949779957533,160.43442189972848,160.43442189972848,160.43442189972848,160.4508170997724,160.75241119973361,2,normal,0.31809210032224655,[-0.8],[-0.4666666666666667],[1],[0],[0],[2.3180921003222466],160.7526914998889,160.767760399729,0.00019110087305307388,161.06810059957206,162.0361800994724,[],[],[],[],[],[],,,,,,,,,,617985,001,2024-12-03_13h49.43.100,Foreperiod_task,2024.2.1post4,60.068213507155185,2024-12-03 13h50.05.488214 -0800,
46,0,46,[-0.8],[-0.4666666666666667],[1],[0],[0],[2.334969099611044],[],[],[],[],[],[],,,,0,0,0,0,46,0,46,0,162.05221099965274,,,,,,,,,,,,162.03651240002364,162.05221099965274,0.0002658003941178322,162.05221099965274,162.25246699992567,164.03724379930645,164.03724379930645,164.03724379930645,164.05387009959668,164.37231709994376,2,normal,0.33496909961104393,[-0.8],[-0.4666666666666667],[1],[0],[0],[2.334969099611044],164.37274639960378,164.38754559960216,0.00027540046721696854,164.68779709935188,165.58931289985776,[],[],[],[],[],[],,,,,,,,,,617985,001,2024-12-03_13h49.43.100,Foreperiod_task,2024.2.1post4,60.068213507155185,2024-12-03 13h50.05.488214 -0800,
47,0,47,[-0.8],[-0.4666666666666667],[1],[0],[0],[2.334798000752926],[],[],[],[],[],[],,,,0,0,0,0,47,0,47,0,165.60518319997936,,,,,,,,,,,,165.58964119944721,165.60518319997936,0.00026139989495277405,165.60518319997936,165.80539170000702,167.59016830008477,167.59016830008477,167.59016830008477,167.6069062994793,167.9252492999658,2,normal,0.3347980007529259,[-0.8],[-0.4666666666666667],[1],[0],[0],[2.334798000752926],167.92566239926964,167.94045829959214,0.0002776002511382103,168.24070919957012,169.5759106995538,[],[],[],[],[],[],,,,,,,,,,617985,001,2024-12-03_13h49.43.100,Foreperiod_task,2024.2.1post4,60.068213507155185,2024-12-03 13h50.05.488214 -0800,
48,0,48,[-0.8],[-0.4666666666666667],[1],[0],[0],[2.401507799513638],[],[],[],[],[],[],,,,0,0,0,0,48,0,48,0,169.5918478993699,,,,,,,,,,,,169.57630869932473,169.5918478993699,0.0003278004005551338,169.5918478993699,169.79208560008556,171.57673499919474,171.57673499919474,171.57673499919474,171.59348369948566,171.97848779987544,2,normal,0.401507799513638,[-0.8],[-0.4666666666666667],[1],[0],[0],[2.401507799513638],171.97884769923985,171.99360889941454,0.00023370049893856049,172.29408099967986,173.5960884001106,[],[],[],[],[],[],,,,,,,,,,617985,001,2024-12-03_13h49.43.100,Foreperiod_task,2024.2.1post4,60.068213507155185,2024-12-03 13h50.05.488214 -0800,
49,0,49,[-0.8],[-0.4666666666666667],[1],[0],[0],[0.88349589984864],[],[],[],[],[],[],,,,0,0,0,0,49,0,49,0,173.61184619925916,,,,,,,,,,,,173.59649939928204,173.61184619925916,0.00034479983150959015,173.61184619925916,173.81200579926372,174.09513719938695,174.09513719938695,174.09513719938695,174.11232699919492,174.48071949929,0.5,normal,0.38349589984863997,[-0.8],[-0.4666666666666667],[1],[0],[0],[0.88349589984864],174.48121770005673,174.4957134993747,0.0003830995410680771,174.79610729962587,175.94789399951696,[],[],[],[],[],[],,,,,,,,,,617985,001,2024-12-03_13h49.43.100,Foreperiod_task,2024.2.1post4,60.068213507155185,2024-12-03 13h50.05.488214 -0800,
50,0,50,[-0.8],[-0.4666666666666667],[1],[0],[0],[2.3681057998910546],[],[],[],[],[],[],,,,0,0,0,0,50,0,50,0,175.9637994999066,,,,,,,,,,,,175.9482108997181,175.9637994999066,0.0002506999298930168,175.9637994999066,176.16388759948313,177.94885449949652,177.94885449949652,177.94885449949652,177.9655595999211,178.31701149977744,2,normal,0.36810579989105463,[-0.8],[-0.4666666666666667],[1],[0],[0],[2.3681057998910546],178.31737039983273,178.33262399956584,0.00024370010942220688,178.63266070000827,179.80070749949664,[],[],[],[],[],[],,,,,,,,,,617985,001,2024-12-03_13h49.43.100,Foreperiod_task,2024.2.1post4,60.068213507155185,2024-12-03 13h50.05.488214 -0800,
51,0,51,[-0.8],[-0.4666666666666667],[1],[0],[0],[0.8682167995721102],[],[],[],[],[],[],,,,0,0,0,0,51,0,51,0,179.81673119962215,,,,,,,,,,,,179.8010161994025,179.81673119962215,0.00024070031940937042,179.81673119962215,180.01711509935558,180.3007374992594,180.3007374992594,180.3007374992594,180.31741439923644,180.6700104996562,0.5,normal,0.3682167995721102,[-0.8],[-0.4666666666666667],[1],[0],[0],[0.8682167995721102],180.6704270998016,180.68442669976503,0.0002995003014802933,180.98465859983116,182.30320599954575,[],[],[],[],[],[],,,,,,,,,,617985,001,2024-12-03_13h49.43.100,Foreperiod_task,2024.2.1post4,60.068213507155185,2024-12-03 13h50.05.488214 -0800,
52,0,52,[-0.8],[-0.4666666666666667],[1],[0],[0],[0.8668937003239989],[],[],[],[],[],[],,,,0,0,0,0,52,0,52,0,182.31909019965678,,,,,,,,,,,,182.30357119999826,182.31909019965678,0.000296199694275856,182.31909019965678,182.51901109982282,182.80284059979022,182.80284059979022,182.80284059979022,182.81954799965024,183.17114969994873,0.5,normal,0.36689370032399893,[-0.8],[-0.4666666666666667],[1],[0],[0],[0.8668937003239989],183.17151740007102,183.1865117000416,0.0002476004883646965,183.48671499919146,184.85541789978743,[],[],[],[],[],[],,,,,,,,,,617985,001,2024-12-03_13h49.43.100,Foreperiod_task,2024.2.1post4,60.068213507155185,2024-12-03 13h50.05.488214 -0800,
53,0,53,[-0.8],[-0.4666666666666667],[1],[0],[0],[1.5340557005256414],[],[],[],[],[],[],,,,0,0,0,0,53,0,53,0,184.87116249930114,,,,,,,,,,,,184.8557508001104,184.87116249930114,0.0002578999847173691,184.87116249930114,185.07139569986612,186.07219159975648,186.07219159975648,186.07219159975648,186.08931449986994,186.39054459985346,1.209719247765386,surprise,0.32433645276025547,[-0.8],[-0.4666666666666667],[1],[0],[0],[1.5340557005256414],186.39095839951187,186.40578989963979,0.0002586003392934799,186.70600469969213,187.69117459934205,[],[],[],[],[],[],,,,,,,,,,617985,001,2024-12-03_13h49.43.100,Foreperiod_task,2024.2.1post4,60.068213507155185,2024-12-03 13h50.05.488214 -0800,
54,0,54,[-0.8],[-0.4666666666666667],[1],[0],[0],[0.9334126999601722],[],[],[],[],[],[],,,,0,0,0,0,54,0,54,0,187.7070905994624,,,,,,,,,,,,187.69153090007603,187.7070905994624,0.00028040073812007904,187.7070905994624,187.90731449984014,188.19072169996798,188.19072169996798,188.19072169996798,188.2074445998296,188.62562669999897,0.5,normal,0.4334126999601722,[-0.8],[-0.4666666666666667],[1],[0],[0],[0.9334126999601722],188.62600489985198,188.64113799948245,0.0002452004700899124,188.94125369936228,189.9262413000688,[],[],[],[],[],[],,,,,,,,,,617985,001,2024-12-03_13h49.43.100,Foreperiod_task,2024.2.1post4,60.068213507155185,2024-12-03 13h50.05.488214 -0800,
55,0,55,[-0.8888888888888888],[-0.2537037037037037],[1],[0],[0],[0.8666967004537582],[],[],[],[],[],[],,,,0,0,0,0,55,0,55,0,189.94212639983743,,,,,,,,,,,,189.9265493992716,189.94212639983743,0.00024480000138282776,189.94212639983743,190.14209659956396,190.42615709919482,190.42615709919482,190.42615709919482,190.44272470008582,190.79400199931115,0.5,normal,0.36669670045375824,[-0.8888888888888888],[-0.2537037037037037],[1],[0],[0],[0.8666967004537582],190.79433659929782,190.8093162998557,0.00021960027515888214,191.10886869952083,192.41153629962355,[],[],[],[],[],[],,,,,,,,,,617985,001,2024-12-03_13h49.43.100,Foreperiod_task,2024.2.1post4,60.068213507155185,2024-12-03 13h50.05.488214 -0800,
56,0,56,[-0.8888888888888888],[0.3074074074074074],[1],[0],[0],[0.4168386999517679],[],[],[],[],[],[],,,,0,0,0,0,56,0,56,0,192.42751359939575,,,,,,,,,,,,192.41190289985389,192.42751359939575,0.0002699997276067734,192.42751359939575,192.62775320000947,,,,,192.8295921999961,1.3053005673224896,surprise,-0.8884618673707216,[-0.8888888888888888],[0.3074074074074074],[1],[0],[0],[0.4168386999517679],192.82998610008508,192.84337719995528,0.00024370010942220688,193.14415759965777,194.04634499922395,[],[],[],[],[],[],192.84337719995528,,,,,,,,,617985,001,2024-12-03_13h49.43.100,Foreperiod_task,2024.2.1post4,60.068213507155185,2024-12-03 13h50.05.488214 -0800,
57,0,57,[-0.8888888888888888],[0.3074074074074074],[1],[0],[0],[0.8994420003145933],[],[],[],[],[],[],,,,0,0,0,0,57,0,57,0,194.06225330010056,,,,,,,,,,,,194.04667750000954,194.06225330010056,0.0002584001049399376,194.06225330010056,194.2623819001019,194.54600819945335,194.54600819945335,194.54600819945335,194.5625751996413,194.94655869994313,0.5,normal,0.3994420003145933,[-0.8888888888888888],[0.3074074074074074],[1],[0],[0],[0.8994420003145933],194.946746699512,194.9623607993126,0.0001414995640516281,195.2631512992084,196.24802219960839,[],[],[],[],[],[],,,,,,,,,,617985,001,2024-12-03_13h49.43.100,Foreperiod_task,2024.2.1post4,60.068213507155185,2024-12-03 13h50.05.488214 -0800,
58,0,58,[-0.8888888888888888],[0.3074074074074074],[1],[0],[0],[1.5514246998354793],[],[],[],[],[],[],,,,0,0,0,0,58,0,58,0,196.26433099992573,,,,,,,,,,,,196.24837379995733,196.26433099992573,0.0002827998250722885,196.26433099992573,196.46418959926814,197.4650460993871,197.4650460993871,197.4650460993871,197.48186859954149,197.8006237996742,1.2155931961404165,surprise,0.33583150369506276,[-0.8888888888888888],[0.3074074074074074],[1],[0],[0],[1.5514246998354793],197.80111209955066,197.81565849948674,0.0003578001633286476,198.11576959956437,199.11722779925913,[],[],[],[],[],[],,,,,,,,,,617985,001,2024-12-03_13h49.43.100,Foreperiod_task,2024.2.1post4,60.068213507155185,2024-12-03 13h50.05.488214 -0800,
59,0,59,[-0.8888888888888888],[0.3074074074074074],[1],[0],[0],[2.368564199656248],[],[],[],[],[],[],,,,0,0,0,0,59,0,59,0,199.13229249976575,,,,,,,,,,,,199.1176103996113,199.13229249976575,0.0003000004217028618,199.13229249976575,199.33337959926575,201.11841159965843,201.11841159965843,201.11841159965843,201.13394080009311,201.48700359929353,2,normal,0.3685641996562481,[-0.8888888888888888],[0.3074074074074074],[1],[0],[0],[2.368564199656248],201.48740029986948,201.5018369993195,0.00025669950991868973,201.80196699965745,202.68680159933865,[],[],[],[],[],[],,,,,,,,,,617985,001,2024-12-03_13h49.43.100,Foreperiod_task,2024.2.1post4,60.068213507155185,2024-12-03 13h50.05.488214 -0800,
60,0,60,[-0.8888888888888888],[0.3074074074074074],[1],[0],[0],[2.3683978002518415],[],[],[],[],[],[],,,,0,0,0,0,60,0,60,0,202.70275179948658,,,,,,,,,,,,202.6871418999508,202.70275179948658,0.0002679005265235901,202.70275179948658,202.90295989997685,204.6876454995945,204.6876454995945,204.6876454995945,204.70434929989278,205.05636559985578,2,normal,0.36839780025184155,[-0.8888888888888888],[0.3074074074074074],[1],[0],[0],[2.3683978002518415],205.0568065997213,205.07149619981647,0.0002973005175590515,205.37161519937217,206.69005299918354,[],[],[],[],[],[],,,,,,,,,,617985,001,2024-12-03_13h49.43.100,Foreperiod_task,2024.2.1post4,60.068213507155185,2024-12-03 13h50.05.488214 -0800,
61,0,61,[-0.8888888888888888],[0.3074074074074074],[1],[0],[0],[0.8669819999486208],[],[],[],[],[],[],,,,0,0,0,0,61,0,61,0,206.70640959963202,,,,,,,,,,,,206.69041609950364,206.70640959963202,0.0002902001142501831,206.70640959963202,206.90621630009264,207.18978349957615,207.18978349957615,207.18978349957615,207.20653919968754,207.55821369960904,0.5,normal,0.3669819999486208,[-0.8888888888888888],[0.3074074074074074],[1],[0],[0],[0.8669819999486208],207.5586756998673,207.573413499631,0.0003202008083462715,207.8735996996984,208.87494309991598,[],[],[],[],[],[],,,,,,,,,,617985,001,2024-12-03_13h49.43.100,Foreperiod_task,2024.2.1post4,60.068213507155185,2024-12-03 13h50.05.488214 -0800,
62,0,62,[-0.8888888888888888],[0.3074074074074074],[1],[0],[0],[2.435597900301218],[],[],[],[],[],[],,,,0,0,0,0,62,0,62,0,208.8907377999276,,,,,,,,,,,,208.8752369992435,208.8907377999276,0.00023300014436244965,208.8907377999276,209.09165930002928,210.87691629957408,210.87691629957408,210.87691629957408,210.89359259977937,211.31165999919176,2,normal,0.43559790030121803,[-0.8888888888888888],[0.3074074074074074],[1],[0],[0],[2.435597900301218],211.31215139944106,211.32638149987906,0.00034299958497285843,211.62676779925823,212.5615978995338,[],[],[],[],[],[],,,,,,,,,,617985,001,2024-12-03_13h49.43.100,Foreperiod_task,2024.2.1post4,60.068213507155185,2024-12-03 13h50.05.488214 -0800,
63,0,63,[-0.8888888888888888],[0.3074074074074074],[1],[0],[0],[1.81775620020926],[],[],[],[],[],[],,,,0,0,0,0,63,0,63,0,212.577575199306,,,,,,,,,,,,212.56195289921016,212.577575199306,0.00026139989495277405,212.577575199306,212.77716679964215,214.0461065992713,214.0461065992713,214.0461065992713,214.0624473998323,214.3805196993053,1.4805625527629864,surprise,0.33719364744627356,[-0.8888888888888888],[0.3074074074074074],[1],[0],[0],[1.81775620020926],214.38097569998354,214.39596689958125,0.00027849990874528885,214.6959288995713,215.94792399927974,[],[],[],[],[],[],,,,,,,,,,617985,001,2024-12-03_13h49.43.100,Foreperiod_task,2024.2.1post4,60.068213507155185,2024-12-03 13h50.05.488214 -0800,
64,0,64,[-0.8888888888888888],[0.3074074074074074],[1],[0],[0],[0.8338125003501773],[],[],[],[],[],[],,,,0,0,0,0,64,0,64,0,215.96405249927193,,,,,,,,,,,,215.94826699979603,215.96405249927193,0.0002780994400382042,215.96405249927193,216.16354359965771,216.44754400011152,216.44754400011152,216.44754400011152,216.46420169994235,216.7828642996028,0.5,normal,0.3338125003501773,[-0.8888888888888888],[0.3074074074074074],[1],[0],[0],[0.8338125003501773],216.78334179986268,216.7978485999629,0.00033549964427948,217.0980895999819,218.16616849973798,[],[],[],[],[],[],,,,,,,,,,617985,001,2024-12-03_13h49.43.100,Foreperiod_task,2024.2.1post4,60.068213507155185,2024-12-03 13h50.05.488214 -0800,
65,0,65,[-0.8888888888888888],[0.3074074074074074],[1],[0],[0],[2.335558700375259],[],[],[],[],[],[],,,,0,0,0,0,65,0,65,0,218.18214149959385,,,,,,,,,,,,218.1663557998836,218.18214149959385,0.00014459993690252304,218.18214149959385,218.3824472995475,220.16717949975282,220.16717949975282,220.16717949975282,220.184094899334,220.50260749924928,2,normal,0.3355587003752589,[-0.8888888888888888],[0.3074074074074074],[1],[0],[0],[2.335558700375259],220.50297619961202,220.5177110992372,0.00024239998310804367,220.81778809987009,221.88597379997373,[],[],[],[],[],[],,,,,,,,,,617985,001,2024-12-03_13h49.43.100,Foreperiod_task,2024.2.1post4,60.068213507155185,2024-12-03 13h50.05.488214 -0800,
66,0,66,[-0.8888888888888888],[0.3074074074074074],[1],[0],[0],[2.318390999920666],[],[],[],[],[],[],,,,0,0,0,0,66,0,66,0,221.90205979999155,,,,,,,,,,,,221.8863084996119,221.90205979999155,0.0002609994262456894,221.90205979999155,222.10203169938177,223.88717400003225,223.88717400003225,223.88717400003225,223.90371349919587,224.20545979961753,2,normal,0.3183909999206662,[-0.8888888888888888],[0.3074074074074074],[1],[0],[0],[2.318390999920666],224.20580449979752,224.22080989927053,0.00022089947015047073,224.52095679938793,225.48943519964814,[],[],[],[],[],[],,,,,,,,,,617985,001,2024-12-03_13h49.43.100,Foreperiod_task,2024.2.1post4,60.068213507155185,2024-12-03 13h50.05.488214 -0800,
67,0,67,[-0.8888888888888888],[0.3074074074074074],[1],[0],[0],[2.3677909998223186],[],[],[],[],[],[],,,,0,0,0,0,67,0,67,0,225.50567909982055,,,,,,,,,,,,225.4898009998724,225.50567909982055,0.0002807006239891052,225.50567909982055,225.7052352996543,227.4900154992938,227.4900154992938,227.4900154992938,227.50678529962897,227.8583407998085,2,normal,0.36779099982231855,[-0.8888888888888888],[0.3074074074074074],[1],[0],[0],[2.3677909998223186],227.8586980998516,227.87376299966127,0.00021409988403320312,228.17373359948397,229.10877719987184,[],[],[],[],[],[],,,,,,,,,,617985,001,2024-12-03_13h49.43.100,Foreperiod_task,2024.2.1post4,60.068213507155185,2024-12-03 13h50.05.488214 -0800,
68,0,68,[-0.8888888888888888],[0.3074074074074074],[1],[0],[0],[2.36837499961257],[],[],[],[],[],[],,,,0,0,0,0,68,0,68,0,229.12471309956163,,,,,,,,,,,,229.1091355998069,229.12471309956163,0.0002644006162881851,229.12471309956163,229.32485170010477,231.10985499992967,231.10985499992967,231.10985499992967,231.12636259943247,231.4784291991964,2,normal,0.3683749996125698,[-0.8888888888888888],[0.3074074074074074],[1],[0],[0],[2.36837499961257],231.478940599598,231.49351689964533,0.0003922991454601288,231.79364249948412,233.1120806997642,[],[],[],[],[],[],,,,,,,,,,617985,001,2024-12-03_13h49.43.100,Foreperiod_task,2024.2.1post4,60.068213507155185,2024-12-03 13h50.05.488214 -0800,
69,0,69,[-0.8888888888888888],[0.3074074074074074],[1],[0],[0],[0.9839654993265867],[],[],[],[],[],[],,,,0,0,0,0,69,0,69,0,233.12804199941456,,,,,,,,,,,,233.11240939982235,233.12804199941456,0.00026200059801340103,233.12804199941456,233.32823689933866,233.6117321997881,233.6117321997881,233.6117321997881,233.6285427995026,234.0971510997042,0.5,normal,0.4839654993265867,[-0.8888888888888888],[0.3074074074074074],[1],[0],[0],[0.9839654993265867],234.09755619987845,234.11230819951743,0.0002945996820926666,234.41237080004066,235.41410989966244,[],[],[],[],[],[],,,,,,,,,,617985,001,2024-12-03_13h49.43.100,Foreperiod_task,2024.2.1post4,60.068213507155185,2024-12-03 13h50.05.488214 -0800,
70,0,70,[-0.8888888888888888],[0.3074074074074074],[1],[0],[0],[0.9670872995629907],[],[],[],[],[],[],,,,0,0,0,0,70,0,70,0,235.43000659998506,,,,,,,,,,,,235.414462399669,235.43000659998506,0.0002711992710828781,235.43000659998506,235.6300532994792,235.91362829972059,235.91362829972059,235.91362829972059,235.9303218992427,236.38237159978598,0.5,normal,0.46708729956299067,[-0.8888888888888888],[0.3074074074074074],[1],[0],[0],[0.9670872995629907],236.38286380004138,236.39743669983,0.00035220012068748474,236.69763359986246,237.9160678992048,[],[],[],[],[],[],,,,,,,,,,617985,001,2024-12-03_13h49.43.100,Foreperiod_task,2024.2.1post4,60.068213507155185,2024-12-03 13h50.05.488214 -0800,
71,0,71,[-0.8888888888888888],[0.3074074074074074],[1],[0],[0],[0.8673762995749712],[],[],[],[],[],[],,,,0,0,0,0,71,0,71,0,237.93201609980315,,,,,,,,,,,,237.91640699934214,237.93201609980315,0.00028300005942583084,237.93201609980315,238.13242230005562,238.4160544993356,238.4160544993356,238.4160544993356,238.43261369969696,238.7845930000767,0.5,normal,0.3673762995749712,[-0.8888888888888888],[0.3074074074074074],[1],[0],[0],[0.8673762995749712],238.7850685995072,238.79953170008957,0.00035170000046491623,239.09971029963344,240.23503539990634,[],[],[],[],[],[],,,,,,,,,,617985,001,2024-12-03_13h49.43.100,Foreperiod_task,2024.2.1post4,60.068213507155185,2024-12-03 13h50.05.488214 -0800,
72,0,72,[-0.8888888888888888],[0.3074074074074074],[1],[0],[0],[0.8670116998255253],[],[],[],[],[],[],,,,0,0,0,0,72,0,72,0,240.25089660007507,,,,,,,,,,,,240.2353991996497,240.25089660007507,0.00028060004115104675,240.25089660007507,240.45073939953,240.73455439973623,240.73455439973623,240.73455439973623,240.7512222994119,241.103232299909,0.5,normal,0.3670116998255253,[-0.8888888888888888],[0.3074074074074074],[1],[0],[0],[0.8670116998255253],241.10372729972005,241.118004899472,0.0003696996718645096,241.41850979998708,242.35298449918628,[],[],[],[],[],[],,,,,,,,,,617985,001,2024-12-03_13h49.43.100,Foreperiod_task,2024.2.1post4,60.068213507155185,2024-12-03 13h50.05.488214 -0800,
73,0,73,[-0.8888888888888888],[0.3074074074074074],[1],[0],[0],[0.8830853998661041],[],[],[],[],[],[],,,,0,0,0,0,73,0,73,0,242.36898679938167,,,,,,,,,,,,242.35329789947718,242.36898679938167,0.0002479003742337227,242.36898679938167,242.56918749958277,242.85283259954304,242.85283259954304,242.85283259954304,242.86953500006348,243.2370472997427,0.5,normal,0.3830853998661041,[-0.8888888888888888],[0.3074074074074074],[1],[0],[0],[0.8830853998661041],243.23737139999866,243.25310089997947,0.00020830053836107254,243.55336389970034,244.8556530000642,[],[],[],[],[],[],,,,,,,,,,617985,001,2024-12-03_13h49.43.100,Foreperiod_task,2024.2.1post4,60.068213507155185,2024-12-03 13h50.05.488214 -0800,
74,0,74,[-0.8888888888888888],[0.3074074074074074],[1],[0],[0],[0.9000964006409049],[],[],[],[],[],[],,,,0,0,0,0,74,0,74,0,244.87129830010235,,,,,,,,,,,,244.85597839951515,244.87129830010235,0.00026030000299215317,244.87129830010235,245.07134819962084,245.35486399941146,245.35486399941146,245.35486399941146,245.3715809993446,245.7569725997746,0.5,normal,0.4000964006409049,[-0.8888888888888888],[0.3074074074074074],[1],[0],[0],[0.9000964006409049],245.7574547994882,245.77197510004044,0.0003294004127383232,246.07223999965936,247.1904576998204,[],[],[],[],[],[],,,,,,,,,,617985,001,2024-12-03_13h49.43.100,Foreperiod_task,2024.2.1post4,60.068213507155185,2024-12-03 13h50.05.488214 -0800,
75,0,75,[-0.8888888888888888],[0.3074074074074074],[1],[0],[0],[2.368143199943006],[],[],[],[],[],[],,,,0,0,0,0,75,0,75,0,247.20636489987373,,,,,,,,,,,,247.1907899994403,247.20636489987373,0.0002675997093319893,247.20636489987373,247.40653889998794,249.191374999471,249.191374999471,249.191374999471,249.20818590000272,249.55971179995686,2,normal,0.36814319994300604,[-0.8888888888888888],[0.3074074074074074],[1],[0],[0],[2.368143199943006],249.56012389995158,249.57509809918702,0.0002679005265235901,249.8753221994266,251.16034119948745,[],[],[],[],[],[],,,,,,,,,,617985,001,2024-12-03_13h49.43.100,Foreperiod_task,2024.2.1post4,60.068213507155185,2024-12-03 13h50.05.488214 -0800,
76,0,76,[-0.8888888888888888],[0.3074074074074074],[1],[0],[0],[0.8839606996625662],[],[],[],[],[],[],,,,0,0,0,0,76,0,76,0,251.17635539919138,,,,,,,,,,,,251.16066559962928,251.17635539919138,0.0002619996666908264,251.17635539919138,251.37652219925076,251.6601976994425,251.6601976994425,251.6601976994425,251.67688469961286,252.04574809968472,0.5,normal,0.3839606996625662,[-0.8888888888888888],[0.3074074074074074],[1],[0],[0],[0.8839606996625662],252.04616819974035,252.06063889991492,0.0002790996804833412,252.3607589993626,253.6123941000551,[],[],[],[],[],[],,,,,,,,,,617985,001,2024-12-03_13h49.43.100,Foreperiod_task,2024.2.1post4,60.068213507155185,2024-12-03 13h50.05.488214 -0800,
77,0,77,[-0.8888888888888888],[0.3074074074074074],[1],[0],[0],[2.368445299565792],[],[],[],[],[],[],,,,0,0,0,0,77,0,77,0,253.6282878993079,,,,,,,,,,,,253.61268949974328,253.6282878993079,0.00023369956761598587,253.6282878993079,253.82864119950682,255.6133824000135,255.6133824000135,255.6133824000135,255.6301657995209,255.98196200001985,2,normal,0.3684452995657921,[-0.8888888888888888],[0.3074074074074074],[1],[0],[0],[2.368445299565792],255.98239869996905,255.99714969936758,0.0002909991890192032,256.2970539992675,257.46564619988203,[],[],[],[],[],[],,,,,,,,,,617985,001,2024-12-03_13h49.43.100,Foreperiod_task,2024.2.1post4,60.068213507155185,2024-12-03 13h50.05.488214 -0800,
78,0,78,[-0.8888888888888888],[0.3074074074074074],[1],[0],[0],[0.8662070007994771],[],[],[],[],[],[],,,,0,0,0,0,78,0,78,0,257.481587799266,,,,,,,,,,,,257.46596550010145,257.481587799266,0.0002536000683903694,257.481587799266,257.68183149956167,257.9654129995033,257.9654129995033,257.9654129995033,257.98203429952264,258.33260679990053,0.5,normal,0.3662070007994771,[-0.8888888888888888],[0.3074074074074074],[1],[0],[0],[0.8662070007994771],258.3329099994153,258.3486465997994,0.0002573002129793167,258.6494452999905,259.8177591999993,[],[],[],[],[],[],,,,,,,,,,617985,001,2024-12-03_13h49.43.100,Foreperiod_task,2024.2.1post4,60.068213507155185,2024-12-03 13h50.05.488214 -0800,
79,0,79,[-0.8888888888888888],[0.3074074074074074],[1],[0],[0],[0.8669740995392203],[],[],[],[],[],[],,,,0,0,0,0,79,0,79,0,259.83358689956367,,,,,,,,,,,,259.81818209961057,259.83358689956367,0.0003456994891166687,259.83358689956367,260.0337413996458,260.33361059986055,260.33361059986055,260.33361059986055,260.3503668997437,260.68569249939173,0.5,normal,0.36697409953922033,[-0.8888888888888888],[0.3074074074074074],[1],[0],[0],[0.8669740995392203],260.6860461998731,260.7009395994246,0.00029709935188293457,261.00085769966245,262.15318049956113,[],[],[],[],[],[],,,,,,,,,,617985,001,2024-12-03_13h49.43.100,Foreperiod_task,2024.2.1post4,60.068213507155185,2024-12-03 13h50.05.488214 -0800,
80,0,80,[-0.8888888888888888],[0.3074074074074074],[1],[0],[0],[1.850861500017345],[],[],[],[],[],[],,,,0,0,0,0,80,0,80,0,262.1686557997018,,,,,,,,,,,,262.1535235000774,262.1686557997018,0.00026750005781650543,262.1686557997018,262.3690836997703,263.62019519973546,263.62019519973546,263.62019519973546,263.63678579963744,264.0051205996424,1.4574297237625458,surprise,0.3934317762547992,[-0.8888888888888888],[0.3074074074074074],[1],[0],[0],[1.850861500017345],264.00585259962827,264.0206069992855,0.0006359005346894264,264.32077159918845,265.27225019969046,[],[],[],[],[],[],,,,,,,,,,617985,001,2024-12-03_13h49.43.100,Foreperiod_task,2024.2.1post4,60.068213507155185,2024-12-03 13h50.05.488214 -0800,
81,0,81,[-0.8888888888888888],[0.3074074074074074],[1],[0],[0],[1.7010559998452663],[],[],[],[],[],[],,,,0,0,0,0,81,0,81,0,265.28820319939405,,,,,,,,,,,,265.2725745998323,265.28820319939405,0.0002463003620505333,265.28820319939405,265.4883447997272,266.5721577992663,266.5721577992663,266.5721577992663,266.5891363993287,266.9744761995971,1.2983922148244913,surprise,0.40266378502077504,[-0.8888888888888888],[0.3074074074074074],[1],[0],[0],[1.7010559998452663],266.97503999993205,266.9898913996294,0.0004262998700141907,267.2899567997083,268.39140990003943,[],[],[],[],[],[],,,,,,,,,,617985,001,2024-12-03_13h49.43.100,Foreperiod_task,2024.2.1post4,60.068213507155185,2024-12-03 13h50.05.488214 -0800,
82,0,82,[-0.8888888888888888],[0.3074074074074074],[1],[0],[0],[0.9167150007560849],[],[],[],[],[],[],,,,0,0,0,0,82,0,82,0,268.4073410993442,,,,,,,,,,,,268.39169869944453,268.4073410993442,0.00023140013217926025,268.4073410993442,268.6073918994516,268.8911448996514,268.8911448996514,268.8911448996514,268.9078826000914,269.30904119927436,0.5,normal,0.4167150007560849,[-0.8888888888888888],[0.3074074074074074],[1],[0],[0],[0.9167150007560849],269.30953499954194,269.32449859939516,0.0003750994801521301,269.6252261996269,270.66006839927286,[],[],[],[],[],[],,,,,,,,,,617985,001,2024-12-03_13h49.43.100,Foreperiod_task,2024.2.1post4,60.068213507155185,2024-12-03 13h50.05.488214 -0800,
83,0,83,[-0.8888888888888888],[0.3074074074074074],[1],[0],[0],[0.8666422003880143],[],[],[],[],[],[],,,,0,0,0,0,83,0,83,0,270.6760056000203,,,,,,,,,,,,270.66043729986995,270.6760056000203,0.0003003999590873718,270.6760056000203,270.876268199645,271.15969979949296,271.15969979949296,271.15969979949296,271.176581999287,271.52776819933206,0.5,normal,0.3666422003880143,[-0.8888888888888888],[0.3074074074074074],[1],[0],[0],[0.8666422003880143],271.52820989955217,271.5433845994994,0.00032079964876174927,271.8435833994299,272.96177389938384,[],[],[],[],[],[],,,,,,,,,,617985,001,2024-12-03_13h49.43.100,Foreperiod_task,2024.2.1post4,60.068213507155185,2024-12-03 13h50.05.488214 -0800,
84,0,84,[-0.8888888888888888],[0.3074074074074074],[1],[0],[0],[2.3518933998420835],[],[],[],[],[],[],,,,0,0,0,0,84,0,84,0,272.9776510996744,,,,,,,,,,,,272.9620485994965,272.9776510996744,0.0002210000529885292,272.9776510996744,273.17776129953563,274.9627933995798,274.9627933995798,274.9627933995798,274.9795923996717,275.31460129935294,2,normal,0.35189339984208345,[-0.8888888888888888],[0.3074074074074074],[1],[0],[0],[2.3518933998420835],275.31490129977465,275.3298566993326,0.00020429957658052444,275.63017809949815,276.5815762998536,[],[],[],[],[],[],,,,,,,,,,617985,001,2024-12-03_13h49.43.100,Foreperiod_task,2024.2.1post4,60.068213507155185,2024-12-03 13h50.05.488214 -0800,
85,0,85,[-0.8888888888888888],[0.3074074074074074],[1],[0],[0],[0.9505521999672055],[],[],[],[],[],[],,,,0,0,0,0,85,0,85,0,276.5976107995957,,,,,,,,,,,,276.5819221995771,276.5976107995957,0.000273900106549263,276.5976107995957,276.79778609983623,277.08139309938997,277.08139309938997,277.08139309938997,277.09799199923873,277.53326099924743,0.5,normal,0.4505521999672055,[-0.8888888888888888],[0.3074074074074074],[1],[0],[0],[0.9505521999672055],277.53389409929514,277.548399399966,0.0005155997350811958,277.84873919934034,279.21588279958814,[],[],[],[],[],[],,,,,,,,,,617985,001,2024-12-03_13h49.43.100,Foreperiod_task,2024.2.1post4,60.068213507155185,2024-12-03 13h50.05.488214 -0800,
86,0,86,[-0.8888888888888888],[0.3074074074074074],[1],[0],[0],[2.386471400037408],[],[],[],[],[],[],,,,0,0,0,0,86,0,86,0,279.23247599974275,,,,,,,,,,,,279.2160058999434,279.23247599974275,9.479932487010956e-05,279.23247599974275,279.433332699351,281.21822910010815,281.21822910010815,281.21822910010815,281.2348752999678,281.603069299832,2,normal,0.3864714000374079,[-0.8888888888888888],[0.3074074074074074],[1],[0],[0],[2.386471400037408],281.6035573994741,281.618349599652,0.0003941003233194351,281.9188083000481,283.203836299479,[],[],[],[],[],[],,,,,,,,,,617985,001,2024-12-03_13h49.43.100,Foreperiod_task,2024.2.1post4,60.068213507155185,2024-12-03 13h50.05.488214 -0800,
87,0,87,[-0.8888888888888888],[0.3074074074074074],[1],[0],[0],[1.7845584005117416],[],[],[],[],[],[],,,,0,0,0,0,87,0,87,0,283.2199086993933,,,,,,,,,,,,283.2041879994795,283.2199086993933,0.0002728002145886421,283.2199086993933,283.4193021999672,284.604270699434,284.604270699434,284.604270699434,284.62057629972696,284.98961829952896,1.387105752631507,surprise,0.3974526478802347,[-0.8888888888888888],[0.3074074074074074],[1],[0],[0],[1.7845584005117416],284.9901110995561,285.0047645000741,0.0003397008404135704,285.3048421991989,286.22299079969525,[],[],[],[],[],[],,,,,,,,,,617985,001,2024-12-03_13h49.43.100,Foreperiod_task,2024.2.1post4,60.068213507155185,2024-12-03 13h50.05.488214 -0800,
88,0,88,[-0.8888888888888888],[0.3074074074074074],[1],[0],[0],[2.3515249993652105],[],[],[],[],[],[],,,,0,0,0,0,88,0,88,0,286.2389064999297,,,,,,,,,,,,286.22335259988904,286.2389064999297,0.00028770044445991516,286.2389064999297,286.43896029982716,288.22400419972837,288.22400419972837,288.22400419972837,288.2406797995791,288.5756278000772,2,normal,0.35152499936521053,[-0.8888888888888888],[0.3074074074074074],[1],[0],[0],[2.3515249993652105],288.57605839986354,288.59093509986997,0.0002974998205900192,288.8911368995905,289.90953549928963,[],[],[],[],[],[],,,,,,,,,,617985,001,2024-12-03_13h49.43.100,Foreperiod_task,2024.2.1post4,60.068213507155185,2024-12-03 13h50.05.488214 -0800,
89,0,89,[-0.8888888888888888],[0.3074074074074074],[1],[0],[0],[1.5507955998182297],[],[],[],[],[],[],,,,0,0,0,0,89,0,89,0,289.92526450008154,,,,,,,,,,,,289.90985699929297,289.92526450008154,0.00025270041078329086,289.92526450008154,290.12555509991944,291.07627289928496,291.07627289928496,291.07627289928496,291.0929306000471,291.46141339931637,1.1546570306448671,surprise,0.39613856917336254,[-0.8888888888888888],[0.3074074074074074],[1],[0],[0],[1.5507955998182297],291.46174670010805,291.4766159998253,0.00022410042583942413,291.7769973995164,293.0795152997598,[],[],[],[],[],[],,,,,,,,,,617985,001,2024-12-03_13h49.43.100,Foreperiod_task,2024.2.1post4,60.068213507155185,2024-12-03 13h50.05.488214 -0800,
90,0,90,[-0.8888888888888888],[0.3074074074074074],[1],[0],[0],[0.8490608995780349],[],[],[],[],[],[],,,,0,0,0,0,90,0,90,0,293.09488980006427,,,,,,,,,,,,293.07995750010014,293.09488980006427,0.00033579953014850616,293.09488980006427,293.29475959949195,293.5949844997376,293.5949844997376,293.5949844997376,293.61169609986246,293.92983069922775,0.5,normal,0.3490608995780349,[-0.8888888888888888],[0.3074074074074074],[1],[0],[0],[0.8490608995780349],293.9302377998829,293.94514769967645,0.00026219990104436874,294.2453783992678,295.3971475996077,[],[],[],[],[],[],,,,,,,,,,617985,001,2024-12-03_13h49.43.100,Foreperiod_task,2024.2.1post4,60.068213507155185,2024-12-03 13h50.05.488214 -0800,
91,0,91,[-0.8888888888888888],[0.3074074074074074],[1],[0],[0],[0.9005595007911325],[],[],[],[],[],[],,,,0,0,0,0,91,0,91,0,295.4130934998393,,,,,,,,,,,,295.3974975999445,295.4130934998393,0.00025850068777799606,295.4130934998393,295.61329359933734,295.89709549956024,295.89709549956024,295.89709549956024,295.91366419941187,296.2988934991881,0.5,normal,0.40055950079113245,[-0.8888888888888888],[0.3074074074074074],[1],[0],[0],[0.9005595007911325],296.2993788998574,296.31402039993554,0.0003329003229737282,296.61418409924954,297.5156223997474,[],[],[],[],[],[],,,,,,,,,,617985,001,2024-12-03_13h49.43.100,Foreperiod_task,2024.2.1post4,60.068213507155185,2024-12-03 13h50.05.488214 -0800,
92,0,92,[-0.8888888888888888],[0.3074074074074074],[1],[0],[0],[2.3516634004190564],[],[],[],[],[],[],,,,0,0,0,0,92,0,92,0,297.53156829997897,,,,,,,,,,,,297.5159567994997,297.53156829997897,0.0002661999315023422,297.53156829997897,297.7317165993154,299.5166061995551,299.5166061995551,299.5166061995551,299.53327239956707,299.8685684995726,2,normal,0.3516634004190564,[-0.8888888888888888],[0.3074074074074074],[1],[0],[0],[2.3516634004190564],299.8690291997045,299.88355979975313,0.0003255000337958336,300.18377359956503,301.30213839933276,[],[],[],[],[],[],,,,,,,,,,617985,001,2024-12-03_13h49.43.100,Foreperiod_task,2024.2.1post4,60.068213507155185,2024-12-03 13h50.05.488214 -0800,
93,0,93,[-0.8888888888888888],[0.3074074074074074],[1],[0],[0],[2.385103300213814],[],[],[],[],[],[],,,,0,0,0,0,93,0,93,0,301.31818069983274,,,,,,,,,,,,301.3024957999587,301.31818069983274,0.00028960034251213074,301.31818069983274,301.5182307995856,303.30303759966046,303.30303759966046,303.30303759966046,303.3197951000184,303.6886776993051,2,normal,0.3851033002138138,[-0.8888888888888888],[0.3074074074074074],[1],[0],[0],[2.385103300213814],303.6891137994826,303.70345789939165,0.0003078002482652664,304.00371519941837,305.2049001995474,[],[],[],[],[],[],,,,,,,,,,617985,001,2024-12-03_13h49.43.100,Foreperiod_task,2024.2.1post4,60.068213507155185,2024-12-03 13h50.05.488214 -0800,
94,0,94,[-0.8888888888888888],[0.3074074074074074],[1],[0],[0],[2.3353920001536608],[],[],[],[],[],[],,,,0,0,0,0,94,0,94,0,305.2212844993919,,,,,,,,,,,,305.2052269997075,305.2212844993919,0.00025770068168640137,305.2212844993919,305.4215762997046,307.20635159965605,307.20635159965605,307.20635159965605,307.22301289997995,307.54145339969546,2,normal,0.3353920001536608,[-0.8888888888888888],[0.3074074074074074],[1],[0],[0],[2.3353920001536608],307.54190669953823,307.55672689992934,0.0003078998997807503,307.85684749949723,309.1919122999534,[],[],[],[],[],[],,,,,,,,,,617985,001,2024-12-03_13h49.43.100,Foreperiod_task,2024.2.1post4,60.068213507155185,2024-12-03 13h50.05.488214 -0800,
95,0,95,[-0.8888888888888888],[0.3074074074074074],[1],[0],[0],[2.335043399594724],[],[],[],[],[],[],,,,0,0,0,0,95,0,95,0,309.20777319930494,,,,,,,,,,,,309.19223639927804,309.20777319930494,0.00025799963623285294,309.20777319930494,309.40809599962085,311.1930970996618,311.1930970996618,311.1930970996618,311.2097514998168,311.528039499186,2,normal,0.3350433995947242,[-0.8888888888888888],[0.3074074074074074],[1],[0],[0],[2.335043399594724],311.52848139964044,311.54333009943366,0.0002963002771139145,311.84373260010034,313.06191390007734,[],[],[],[],[],[],,,,,,,,,,617985,001,2024-12-03_13h49.43.100,Foreperiod_task,2024.2.1post4,60.068213507155185,2024-12-03 13h50.05.488214 -0800,
96,0,96,[-0.8888888888888888],[0.3074074074074074],[1],[0],[0],[1.1005760999396443],[],[],[],[],[],[],,,,0,0,0,0,96,0,96,0,313.0778838992119,,,,,,,,,,,,313.06224909983575,313.0778838992119,0.00026490073651075363,313.0778838992119,313.27812749985605,313.5615413999185,313.5615413999185,313.5615413999185,313.57834079954773,314.1635392000899,0.5,normal,0.6005760999396443,[-0.8888888888888888],[0.3074074074074074],[1],[0],[0],[1.1005760999396443],314.16389939934015,314.17881019972265,0.0002445001155138016,314.4789538998157,315.5307779991999,[],[],[],[],[],[],,,,,,,,,,617985,001,2024-12-03_13h49.43.100,Foreperiod_task,2024.2.1post4,60.068213507155185,2024-12-03 13h50.05.488214 -0800,
97,0,97,[-0.8888888888888888],[0.3074074074074074],[1],[0],[0],[2.434993699193001],[],[],[],[],[],[],,,,0,0,0,0,97,0,97,0,315.546669899486,,,,,,,,,,,,315.5311025995761,315.546669899486,0.0002567991614341736,315.546669899486,315.7466933000833,317.53155189938843,317.53155189938843,317.53155189938843,317.5482560992241,317.9667476993054,2,normal,0.4349936991930008,[-0.8888888888888888],[0.3074074074074074],[1],[0],[0],[2.434993699193001],317.9670851994306,317.98194109927863,0.00023959949612617493,318.28246789984405,319.5346133997664,[],[],[],[],[],[],,,,,,,,,,617985,001,2024-12-03_13h49.43.100,Foreperiod_task,2024.2.1post4,60.068213507155185,2024-12-03 13h50.05.488214 -0800,
98,0,98,[-0.8888888888888888],[0.3074074074074074],[1],[0],[0],[2.3678820999339223],[],[],[],[],[],[],,,,0,0,0,0,98,0,98,0,319.55028879921883,,,,,,,,,,,,319.53499569930136,319.55028879921883,0.000283299945294857,319.55028879921883,319.7501888992265,321.5350509993732,321.5350509993732,321.5350509993732,321.5517139993608,321.903597000055,2,normal,0.3678820999339223,[-0.8888888888888888],[0.3074074074074074],[1],[0],[0],[2.3678820999339223],321.9039754997939,321.91875539999455,0.00023400038480758667,322.21897580008954,323.27057819999754,[],[],[],[],[],[],,,,,,,,,,617985,001,2024-12-03_13h49.43.100,Foreperiod_task,2024.2.1post4,60.068213507155185,2024-12-03 13h50.05.488214 -0800,
99,0,99,[-0.8888888888888888],[0.3074074074074074],[1],[0],[0],[0.8837286997586489],[],[],[],[],[],[],,,,0,0,0,0,99,0,99,0,323.2865202995017,,,,,,,,,,,,323.2709090998396,323.2865202995017,0.00029530003666877747,323.2865202995017,323.48651430010796,323.77035509981215,323.77035509981215,323.77035509981215,323.787066699937,324.15565179940313,0.5,normal,0.3837286997586489,[-0.8888888888888888],[0.3074074074074074],[1],[0],[0],[0.8837286997586489],324.1560908993706,324.1708169998601,0.0003175996243953705,324.4706750996411,325.3726808996871,[],[],[],[],[],[],,,,,,,,,,617985,001,2024-12-03_13h49.43.100,Foreperiod_task,2024.2.1post4,60.068213507155185,2024-12-03 13h50.05.488214 -0800,
0,0,0,,,,,,,,,,,,,space,11.344440300017595,None,0,0,0,0,,,,,,,,,,,,,,,,,,,,,,,,,,,,,,,,,,,,,,,,,,,,,,,,325.3943827999756,325.4069616999477,325.4069616999477,336.8330149995163,space,11.344440300017595,None,,617985,001,2024-12-03_13h49.43.100,Foreperiod_task,2024.2.1post4,60.068213507155185,2024-12-03 13h50.05.488214 -0800,
0,0,0,[-0.7935185185185185],[0.3416666666666667],[1],[0],[0],[0.8660518992692232],[],[],[],[],[],[],,,,1,0,1,0,0,0,0,0,336.8370741996914,,,,,,,,,,,,336.83345269970596,336.8370741996914,0.0004201997071504593,336.8370741996914,337.0480316998437,337.3482420993969,337.3482420993969,337.3482420993969,337.3648523995653,337.70016549993306,0.5,normal,0.3660518992692232,[-0.7935185185185185],[0.3416666666666667],[1],[0],[0],[0.8660518992692232],337.7005626000464,337.7151671992615,0.0002561993896961212,338.01544089987874,339.01581660006195,[],[],[],[],[],[],,,,,,,,,,617985,001,2024-12-03_13h49.43.100,Foreperiod_task,2024.2.1post4,60.068213507155185,2024-12-03 13h50.05.488214 -0800,
1,0,1,[-0.7935185185185185],[0.3416666666666667],[1],[0],[0],[2.3535209000110626],[],[],[],[],[],[],,,,1,0,1,0,1,0,1,0,339.03241440001875,,,,,,,,,,,,339.01594439987093,339.03241440001875,0.00010360032320022583,339.03241440001875,339.23314259946346,341.0183358993381,341.0183358993381,341.0183358993381,341.03462419938296,341.37017960008234,2,normal,0.3535209000110626,[-0.7935185185185185],[0.3416666666666667],[1],[0],[0],[2.3535209000110626],341.37057489994913,341.3849449995905,0.0002581002190709114,341.68555259983987,343.0371344992891,[],[],[],[],[],[],,,,,,,,,,617985,001,2024-12-03_13h49.43.100,Foreperiod_task,2024.2.1post4,60.068213507155185,2024-12-03 13h50.05.488214 -0800,
2,0,2,[-0.7935185185185185],[0.3416666666666667],[1],[0],[0],[2.3181413002312183],[],[],[],[],[],[],,,,1,0,1,0,2,0,2,0,343.0529868993908,,,,,,,,,,,,343.0374471992254,343.0529868993908,0.000250999815762043,343.0529868993908,343.25315609946847,345.0381193999201,345.0381193999201,345.0381193999201,345.05462040007114,345.3563466994092,2,normal,0.31814130023121834,[-0.7935185185185185],[0.3416666666666667],[1],[0],[0],[2.3181413002312183],345.35669589973986,345.37157949991524,0.0002259993925690651,345.6718496000394,347.0236865999177,[],[],[],[],[],[],,,,,,,,,,617985,001,2024-12-03_13h49.43.100,Foreperiod_task,2024.2.1post4,60.068213507155185,2024-12-03 13h50.05.488214 -0800,
3,0,3,[-0.7935185185185185],[0.3416666666666667],[1],[0],[0],[2.3347535002976656],[],[],[],[],[],[],,,,1,0,1,0,3,0,3,0,347.0396231999621,,,,,,,,,,,,347.0240245992318,347.0396231999621,0.00026659946888685226,347.0396231999621,347.2398398993537,349.0244240993634,349.0244240993634,349.0244240993634,349.041247099638,349.3594745993614,2,normal,0.3347535002976656,[-0.7935185185185185],[0.3416666666666667],[1],[0],[0],[2.3347535002976656],349.35980849992484,349.3748566992581,0.00021990016102790833,349.67498509958386,350.77676779963076,[],[],[],[],[],[],,,,,,,,,,617985,001,2024-12-03_13h49.43.100,Foreperiod_task,2024.2.1post4,60.068213507155185,2024-12-03 13h50.05.488214 -0800,
4,0,4,[-0.7935185185185185],[0.3416666666666667],[1],[0],[0],[2.3512347005307674],[],[],[],[],[],[],,,,1,0,1,0,4,0,4,0,350.79265849944204,,,,,,,,,,,,350.7771891998127,350.79265849944204,0.00027220044285058975,350.79265849944204,350.99283259920776,352.77764109987766,352.77764109987766,352.77764109987766,352.7942772991955,353.12934229988605,2,normal,0.35123470053076744,[-0.7935185185185185],[0.3416666666666667],[1],[0],[0],[2.3512347005307674],353.1299692997709,353.1447506994009,0.0004591001197695732,353.4448744999245,354.71337640006095,[],[],[],[],[],[],,,,,,,,,,617985,001,2024-12-03_13h49.43.100,Foreperiod_task,2024.2.1post4,60.068213507155185,2024-12-03 13h50.05.488214 -0800,
5,0,5,[-0.7935185185185185],[0.3416666666666667],[1],[0],[0],[2.3680557999759912],[],[],[],[],[],[],,,,1,0,1,0,5,0,5,0,354.7292778994888,,,,,,,,,,,,354.71371949929744,354.7292778994888,0.00026980042457580566,354.7292778994888,354.9295053994283,356.7143038995564,356.7143038995564,356.7143038995564,356.73094779998064,357.08258149959147,2,normal,0.36805579997599125,[-0.7935185185185185],[0.3416666666666667],[1],[0],[0],[2.3680557999759912],357.0830394998193,357.0979039995,0.00033270008862018585,357.39822129998356,358.5506875999272,[],[],[],[],[],[],,,,,,,,,,617985,001,2024-12-03_13h49.43.100,Foreperiod_task,2024.2.1post4,60.068213507155185,2024-12-03 13h50.05.488214 -0800,
6,0,6,[-0.7935185185185185],[0.3416666666666667],[1],[0],[0],[2.300674700178206],[],[],[],[],[],[],,,,1,0,1,0,6,0,6,0,358.565969299525,,,,,,,,,,,,358.55102839972824,358.565969299525,0.00026930030435323715,358.565969299525,358.76600599940866,360.55070459935814,360.55070459935814,360.55070459935814,360.56744730006903,360.85252589918673,2,normal,0.30067470017820597,[-0.7935185185185185],[0.3416666666666667],[1],[0],[0],[2.300674700178206],360.85300350002944,360.8679300993681,0.0003464994952082634,361.16815659962595,362.3369124000892,[],[],[],[],[],[],,,,,,,,,,617985,001,2024-12-03_13h49.43.100,Foreperiod_task,2024.2.1post4,60.068213507155185,2024-12-03 13h50.05.488214 -0800,
7,0,7,[-0.7935185185185185],[0.3416666666666667],[1],[0],[0],[2.35110180079937],[],[],[],[],[],[],,,,1,0,1,0,7,0,7,0,362.3525289995596,,,,,,,,,,,,362.3372704992071,362.3525289995596,0.0002779001370072365,362.3525289995596,362.5523261995986,364.33726490009576,364.33726490009576,364.33726490009576,364.3542129993439,364.68919859919697,2,normal,0.3511018007993698,[-0.7935185185185185],[0.3416666666666667],[1],[0],[0],[2.35110180079937],364.68962009996176,364.7043335996568,0.0002797003835439682,365.0045117000118,366.055680799298,[],[],[],[],[],[],,,,,,,,,,617985,001,2024-12-03_13h49.43.100,Foreperiod_task,2024.2.1post4,60.068213507155185,2024-12-03 13h50.05.488214 -0800,
8,0,8,[-0.7935185185185185],[0.3416666666666667],[1],[0],[0],[0.8506668005138636],[],[],[],[],[],[],,,,1,0,1,0,8,0,8,0,366.0719447992742,,,,,,,,,,,,366.05601529963315,366.0719447992742,0.0002717999741435051,366.0719447992742,366.2720836000517,366.55563919991255,366.55563919991255,366.55563919991255,366.57235439959913,366.9074379997328,0.5,normal,0.35066680051386356,[-0.7935185185185185],[0.3416666666666667],[1],[0],[0],[0.8506668005138636],366.90773449931294,366.9225924992934,0.00018910039216279984,367.22302119992673,368.32495359983295,[],[],[],[],[],[],,,,,,,,,,617985,001,2024-12-03_13h49.43.100,Foreperiod_task,2024.2.1post4,60.068213507155185,2024-12-03 13h50.05.488214 -0800,
9,0,9,[-0.7935185185185185],[0.3416666666666667],[1],[0],[0],[2.384833499789238],[],[],[],[],[],[],,,,1,0,1,0,9,0,9,0,368.34042599983513,,,,,,,,,,,,368.3253156999126,368.34042599983513,0.00028659962117671967,368.34042599983513,368.5409237993881,370.3255442995578,370.3255442995578,370.3255442995578,370.3421783996746,370.71101539954543,2,normal,0.384833499789238,[-0.7935185185185185],[0.3416666666666667],[1],[0],[0],[2.384833499789238],370.7115221992135,370.72597279958427,0.0003595007583498955,371.02607899997383,372.3946381993592,[],[],[],[],[],[],,,,,,,,,,617985,001,2024-12-03_13h49.43.100,Foreperiod_task,2024.2.1post4,60.068213507155185,2024-12-03 13h50.05.488214 -0800,
10,0,10,[-0.7935185185185185],[0.3416666666666667],[1],[0],[0],[2.3351083993911743],[],[],[],[],[],[],,,,1,0,1,0,10,0,10,0,372.41063949931413,,,,,,,,,,,,372.3949679993093,372.41063949931413,0.0002605002373456955,372.41063949931413,372.61121759936213,374.39561999961734,374.39561999961734,374.39561999961734,374.41222649998963,374.7310496997088,2,normal,0.3351083993911743,[-0.7935185185185185],[0.3416666666666667],[1],[0],[0],[2.3351083993911743],374.7314828997478,374.7459479998797,0.0002723000943660736,375.0457136994228,376.29790699947625,[],[],[],[],[],[],,,,,,,,,,617985,001,2024-12-03_13h49.43.100,Foreperiod_task,2024.2.1post4,60.068213507155185,2024-12-03 13h50.05.488214 -0800,
11,0,11,[-0.7935185185185185],[0.3416666666666667],[1],[0],[0],[2.4183990005403757],[],[],[],[],[],[],,,,1,0,1,0,11,0,11,0,376.31378859933466,,,,,,,,,,,,376.29822129942477,376.31378859933466,0.0002490999177098274,376.31378859933466,376.5139597998932,378.29887089971453,378.29887089971453,378.29887089971453,378.3154526995495,378.71738540008664,2,normal,0.4183990005403757,[-0.7935185185185185],[0.3416666666666667],[1],[0],[0],[2.4183990005403757],378.7178817996755,378.73251399956644,0.0003586001694202423,379.03269649948925,380.0342719992623,[],[],[],[],[],[],,,,,,,,,,617985,001,2024-12-03_13h49.43.100,Foreperiod_task,2024.2.1post4,60.068213507155185,2024-12-03 13h50.05.488214 -0800,
12,0,12,[-0.7935185185185185],[0.3416666666666667],[1],[0],[0],[1.8011451996862888],[],[],[],[],[],[],,,,1,0,1,0,12,0,12,0,380.0502861998975,,,,,,,,,,,,380.03460539970547,380.0502861998975,0.00026529934257268906,380.0502861998975,380.2504417998716,381.50185339991003,381.50185339991003,381.50185339991003,381.5188784999773,381.83656909968704,1.4638860039935393,surprise,0.33725919569274954,[-0.7935185185185185],[0.3416666666666667],[1],[0],[0],[1.8011451996862888],381.8371326997876,381.8517584996298,0.0004262002184987068,382.1520649995655,383.3539009001106,[],[],[],[],[],[],,,,,,,,,,617985,001,2024-12-03_13h49.43.100,Foreperiod_task,2024.2.1post4,60.068213507155185,2024-12-03 13h50.05.488214 -0800,
13,0,13,[-0.7935185185185185],[0.3416666666666667],[1],[0],[0],[0.9171380000188947],[],[],[],[],[],[],,,,1,0,1,0,13,0,13,0,383.36978140007704,,,,,,,,,,,,383.3542335992679,383.36978140007704,0.0002635996788740158,383.36978140007704,383.5699406992644,383.85395250003785,383.85395250003785,383.85395250003785,383.8704559998587,384.2721497993916,0.5,normal,0.4171380000188947,[-0.7935185185185185],[0.3416666666666667],[1],[0],[0],[0.9171380000188947],384.2726620994508,384.28718609921634,0.0003679003566503525,384.587559399195,385.4888771995902,[],[],[],[],[],[],,,,,,,,,,617985,001,2024-12-03_13h49.43.100,Foreperiod_task,2024.2.1post4,60.068213507155185,2024-12-03 13h50.05.488214 -0800,
14,0,14,[-0.7935185185185185],[0.3416666666666667],[1],[0],[0],[2.468486700206995],[],[],[],[],[],[],,,,1,0,1,0,14,0,14,0,385.50489840004593,,,,,,,,,,,,385.48919279966503,385.50489840004593,0.0002514999359846115,385.50489840004593,385.70515399985015,387.48970929998904,387.48970929998904,387.48970929998904,387.50650979951024,387.95852959994227,2,normal,0.468486700206995,[-0.7935185185185185],[0.3416666666666667],[1],[0],[0],[2.468486700206995],387.95906159933656,387.97368399985135,0.0003815004602074623,388.27377909980714,389.3921093000099,[],[],[],[],[],[],,,,,,,,,,617985,001,2024-12-03_13h49.43.100,Foreperiod_task,2024.2.1post4,60.068213507155185,2024-12-03 13h50.05.488214 -0800,
15,0,15,[-0.7935185185185185],[0.3416666666666667],[1],[0],[0],[0.9003432001918554],[],[],[],[],[],[],,,,1,0,1,0,15,0,15,0,389.4081873996183,,,,,,,,,,,,389.3924848996103,389.4081873996183,0.00030220020562410355,389.4081873996183,389.6083442000672,389.8917441992089,389.8917441992089,389.8917441992089,389.90839269943535,390.29377999994904,0.5,normal,0.40034320019185543,[-0.7935185185185185],[0.3416666666666667],[1],[0],[0],[0.9003432001918554],390.2942562997341,390.30894459970295,0.00031640008091926575,390.60937279928476,391.51101449970156,[],[],[],[],[],[],,,,,,,,,,617985,001,2024-12-03_13h49.43.100,Foreperiod_task,2024.2.1post4,60.068213507155185,2024-12-03 13h50.05.488214 -0800,
16,0,16,[-0.7935185185185185],[0.3416666666666667],[1],[0],[0],[2.35106619913131],[],[],[],[],[],[],,,,1,0,1,0,16,0,16,0,391.5265640998259,,,,,,,,,,,,391.5113509995863,391.5265640998259,0.0002672998234629631,391.5265640998259,391.7266827998683,393.5113296993077,393.5113296993077,393.5113296993077,393.5279104998335,393.86318619921803,2,normal,0.35106619913131,[-0.7935185185185185],[0.3416666666666667],[1],[0],[0],[2.35106619913131],393.863687899895,393.8785552997142,0.0003495998680591583,394.17860620003194,395.44742639921606,[],[],[],[],[],[],,,,,,,,,,617985,001,2024-12-03_13h49.43.100,Foreperiod_task,2024.2.1post4,60.068213507155185,2024-12-03 13h50.05.488214 -0800,
17,0,17,[-0.7935185185185185],[0.3416666666666667],[1],[0],[0],[2.5181227000430226],[],[],[],[],[],[],,,,1,0,1,0,17,0,17,0,395.4631634000689,,,,,,,,,,,,395.44776690006256,395.4631634000689,0.000264500267803669,395.4631634000689,395.6635460993275,397.4481528000906,397.4481528000906,397.4481528000906,397.4647964993492,397.96679249964654,2,normal,0.5181227000430226,[-0.7935185185185185],[0.3416666666666667],[1],[0],[0],[2.5181227000430226],397.96733669936657,397.9819434992969,0.0004147002473473549,398.2820196999237,399.58389139920473,[],[],[],[],[],[],,,,,,,,,,617985,001,2024-12-03_13h49.43.100,Foreperiod_task,2024.2.1post4,60.068213507155185,2024-12-03 13h50.05.488214 -0800,
18,0,18,[-0.7935185185185185],[0.3416666666666667],[1],[0],[0],[0.8340055998414755],[],[],[],[],[],[],,,,1,0,1,0,18,0,18,0,399.5998885994777,,,,,,,,,,,,399.5840829992667,399.5998885994777,0.0001517999917268753,399.5998885994777,399.80026699975133,400.0836362000555,400.0836362000555,400.0836362000555,400.1002307999879,400.41878689918667,0.5,normal,0.3340055998414755,[-0.7935185185185185],[0.3416666666666667],[1],[0],[0],[0.8340055998414755],400.4192583998665,400.43405369948596,0.00035030022263526917,400.7343659000471,401.9191366992891,[],[],[],[],[],[],,,,,,,,,,617985,001,2024-12-03_13h49.43.100,Foreperiod_task,2024.2.1post4,60.068213507155185,2024-12-03 13h50.05.488214 -0800,
19,0,19,[-0.7935185185185185],[0.3416666666666667],[1],[0],[0],[2.3850213000550866],[],[],[],[],[],[],,,,1,0,1,0,19,0,19,0,401.93504569958895,,,,,,,,,,,,401.919471799396,401.93504569958895,0.00026560015976428986,401.93504569958895,402.13527619931847,403.92024509981275,403.92024509981275,403.92024509981275,403.9369412995875,404.30532159935683,2,normal,0.3850213000550866,[-0.7935185185185185],[0.3416666666666667],[1],[0],[0],[2.3850213000550866],404.3059102995321,404.3206786001101,0.0004536006599664688,404.6207695994526,405.63922959938645,[],[],[],[],[],[],,,,,,,,,,617985,001,2024-12-03_13h49.43.100,Foreperiod_task,2024.2.1post4,60.068213507155185,2024-12-03 13h50.05.488214 -0800,
20,0,20,[-0.7935185185185185],[0.3416666666666667],[1],[0],[0],[0.8834632001817226],[],[],[],[],[],[],,,,1,0,1,0,20,0,20,0,405.6549549000338,,,,,,,,,,,,405.63957679923624,405.6549549000338,0.00028399936854839325,405.6549549000338,405.85507440008223,406.1389222992584,406.1389222992584,406.1389222992584,406.155469099991,406.5238750996068,0.5,normal,0.38346320018172264,[-0.7935185185185185],[0.3416666666666667],[1],[0],[0],[0.8834632001817226],406.5244374992326,406.5390708995983,0.00045419950038194656,406.8392980992794,408.0243130000308,[],[],[],[],[],[],,,,,,,,,,617985,001,2024-12-03_13h49.43.100,Foreperiod_task,2024.2.1post4,60.068213507155185,2024-12-03 13h50.05.488214 -0800,
21,0,21,[-0.7935185185185185],[0.3416666666666667],[1],[0],[0],[0.8669632999226451],[],[],[],[],[],[],,,,1,0,1,0,21,0,21,0,408.0402232995257,,,,,,,,,,,,408.024644699879,408.0402232995257,0.00026400014758110046,408.0402232995257,408.24052419979125,408.52403560001403,408.52403560001403,408.52403560001403,408.54062270000577,408.8923925999552,0.5,normal,0.3669632999226451,[-0.7935185185185185],[0.3416666666666667],[1],[0],[0],[0.8669632999226451],408.8928588991985,408.90759569965303,0.00034369993954896927,409.2085426999256,410.1259557995945,[],[],[],[],[],[],,,,,,,,,,617985,001,2024-12-03_13h49.43.100,Foreperiod_task,2024.2.1post4,60.068213507155185,2024-12-03 13h50.05.488214 -0800,
22,0,22,[-0.7935185185185185],[0.3416666666666667],[1],[0],[0],[0.8502668999135494],[],[],[],[],[],[],,,,1,0,1,0,22,0,22,0,410.1419242992997,,,,,,,,,,,,410.1263221995905,410.1419242992997,0.00028799939900636673,410.1419242992997,410.34213219955564,410.62595969997346,410.62595969997346,410.62595969997346,410.64259759988636,410.9773126998916,0.5,normal,0.3502668999135494,[-0.7935185185185185],[0.3416666666666667],[1],[0],[0],[0.8502668999135494],410.97764039970934,410.99276439938694,0.00021129939705133438,411.2929194997996,412.44457149971277,[],[],[],[],[],[],,,,,,,,,,617985,001,2024-12-03_13h49.43.100,Foreperiod_task,2024.2.1post4,60.068213507155185,2024-12-03 13h50.05.488214 -0800,
23,0,23,[-0.7935185185185185],[0.3416666666666667],[1],[0],[0],[0.833797300234437],[],[],[],[],[],[],,,,1,0,1,0,23,0,23,0,412.46064649987966,,,,,,,,,,,,412.44488519988954,412.46064649987966,0.0002469997853040695,412.46064649987966,412.6607504999265,412.9444354996085,412.9444354996085,412.9444354996085,412.9610324995592,413.2794685997069,0.5,normal,0.333797300234437,[-0.7935185185185185],[0.3416666666666667],[1],[0],[0],[0.833797300234437],413.27994949929416,413.2944192998111,0.00036029983311891556,413.5948427999392,414.5623687999323,[],[],[],[],[],[],,,,,,,,,,617985,001,2024-12-03_13h49.43.100,Foreperiod_task,2024.2.1post4,60.068213507155185,2024-12-03 13h50.05.488214 -0800,
24,0,24,[-0.7935185185185185],[0.3416666666666667],[1],[0],[0],[2.3859085999429226],[],[],[],[],[],[],,,,1,0,1,0,24,0,24,0,414.57830359973013,,,,,,,,,,,,414.56248649954796,414.57830359973013,9.180046617984772e-05,414.57830359973013,414.77917009964585,416.56405839975923,416.56405839975923,416.56405839975923,416.58062489982694,416.94907899945974,2,normal,0.3859085999429226,[-0.7935185185185185],[0.3416666666666667],[1],[0],[0],[2.3859085999429226],416.94949059933424,416.964304799214,0.0002833995968103409,417.2645756993443,418.3160342993215,[],[],[],[],[],[],,,,,,,,,,617985,001,2024-12-03_13h49.43.100,Foreperiod_task,2024.2.1post4,60.068213507155185,2024-12-03 13h50.05.488214 -0800,
25,0,25,[-0.7935185185185185],[0.3416666666666667],[1],[0],[0],[2.385283900424838],[],[],[],[],[],[],,,,1,0,1,0,25,0,25,0,418.3320359000936,,,,,,,,,,,,418.31633449997753,418.3320359000936,0.00023769959807395935,418.3320359000936,418.5318982992321,420.31708629988134,420.31708629988134,420.31708629988134,420.3337778998539,420.70239140000194,2,normal,0.38528390042483807,[-0.7935185185185185],[0.3416666666666667],[1],[0],[0],[2.385283900424838],420.7027719998732,420.7174345999956,0.00026120059192180634,421.0176011994481,422.21948569919914,[],[],[],[],[],[],,,,,,,,,,617985,001,2024-12-03_13h49.43.100,Foreperiod_task,2024.2.1post4,60.068213507155185,2024-12-03 13h50.05.488214 -0800,
26,0,26,[-0.7935185185185185],[0.3416666666666667],[1],[0],[0],[0.867000499740243],[],[],[],[],[],[],,,,1,0,1,0,26,0,26,0,422.2353169992566,,,,,,,,,,,,422.2198180994019,422.2353169992566,0.000269399955868721,422.2353169992566,422.4351535998285,422.7190839992836,422.7190839992836,422.7190839992836,422.73596780002117,423.08761169947684,0.5,normal,0.36700049974024296,[-0.7935185185185185],[0.3416666666666667],[1],[0],[0],[0.867000499740243],423.08800409920514,423.1033860994503,0.0002637002617120743,423.4030825998634,424.3877476993948,[],[],[],[],[],[],,,,,,,,,,617985,001,2024-12-03_13h49.43.100,Foreperiod_task,2024.2.1post4,60.068213507155185,2024-12-03 13h50.05.488214 -0800,
27,0,27,[-0.7935185185185185],[0.3416666666666667],[1],[0],[0],[2.4851382998749614],[],[],[],[],[],[],,,,1,0,1,0,27,0,27,0,424.4037589998916,,,,,,,,,,,,424.38806989975274,424.4037589998916,0.00025929976254701614,424.4037589998916,424.6045159995556,426.3888753000647,426.3888753000647,426.3888753000647,426.4055538000539,426.87402539979666,2,normal,0.4851382998749614,[-0.7935185185185185],[0.3416666666666667],[1],[0],[0],[2.4851382998749614],426.87449419964105,426.8893017992377,0.00032140035182237625,427.189367399551,428.2245428999886,[],[],[],[],[],[],,,,,,,,,,617985,001,2024-12-03_13h49.43.100,Foreperiod_task,2024.2.1post4,60.068213507155185,2024-12-03 13h50.05.488214 -0800,
28,0,28,[-0.7935185185185185],[0.3416666666666667],[1],[0],[0],[1.5502407001331449],[],[],[],[],[],[],,,,1,0,1,0,28,0,28,0,428.24038259964436,,,,,,,,,,,,428.2248609997332,428.24038259964436,0.00025170017033815384,428.24038259964436,428.4405261995271,429.3412231998518,429.3412231998518,429.3412231998518,429.3579003000632,429.7758925994858,1.1104685596349873,surprise,0.4397721404981576,[-0.7935185185185185],[0.3416666666666667],[1],[0],[0],[1.5502407001331449],429.7763692997396,429.791637099348,0.00031750090420246124,430.0919669000432,431.0766289997846,[],[],[],[],[],[],,,,,,,,,,617985,001,2024-12-03_13h49.43.100,Foreperiod_task,2024.2.1post4,60.068213507155185,2024-12-03 13h50.05.488214 -0800,
29,0,29,[-0.7935185185185185],[0.3416666666666667],[1],[0],[0],[0.8341058995574713],[],[],[],[],[],[],,,,1,0,1,0,29,0,29,0,431.09271429944783,,,,,,,,,,,,431.07698869984597,431.09271429944783,0.0002889009192585945,431.09271429944783,431.2928508995101,431.57643410004675,431.57643410004675,431.57643410004675,431.59304279927164,431.91189739946276,0.5,normal,0.3341058995574713,[-0.7935185185185185],[0.3416666666666667],[1],[0],[0],[0.8341058995574713],431.9125189995393,431.9268171992153,0.00048189982771873474,432.2269448991865,433.2452797992155,[],[],[],[],[],[],,,,,,,,,,617985,001,2024-12-03_13h49.43.100,Foreperiod_task,2024.2.1post4,60.068213507155185,2024-12-03 13h50.05.488214 -0800,
30,0,30,[-0.7935185185185185],[0.3416666666666667],[1],[0],[0],[1.650344899855554],[],[],[],[],[],[],,,,1,0,1,0,30,0,30,0,433.26118999999017,,,,,,,,,,,,433.2455919999629,433.26118999999017,0.00024770013988018036,433.26118999999017,433.46130749955773,434.52889379952103,434.52889379952103,434.52889379952103,434.5457165995613,434.89653179980814,1.2837070919590725,surprise,0.3666378078964816,[-0.7935185185185185],[0.3416666666666667],[1],[0],[0],[1.650344899855554],434.8968634996563,434.9122255994007,0.00023490004241466522,435.21286449953914,436.1644619992003,[],[],[],[],[],[],,,,,,,,,,617985,001,2024-12-03_13h49.43.100,Foreperiod_task,2024.2.1post4,60.068213507155185,2024-12-03 13h50.05.488214 -0800,
31,0,31,[-0.7935185185185185],[0.3416666666666667],[1],[0],[0],[2.351343300193548],[],[],[],[],[],[],,,,1,0,1,0,31,0,31,0,436.1803198000416,,,,,,,,,,,,436.1648183995858,436.1803198000416,0.0002818005159497261,436.1803198000416,436.38055579923093,438.1651694998145,438.1651694998145,438.1651694998145,438.1819284996018,438.5169551996514,2,normal,0.3513433001935482,[-0.7935185185185185],[0.3416666666666667],[1],[0],[0],[2.351343300193548],438.5173784997314,438.5324364993721,0.00027719978243112564,438.8324834993109,439.76723749935627,[],[],[],[],[],[],,,,,,,,,,617985,001,2024-12-03_13h49.43.100,Foreperiod_task,2024.2.1post4,60.068213507155185,2024-12-03 13h50.05.488214 -0800,
32,0,32,[-0.7935185185185185],[0.3416666666666667],[1],[0],[0],[0.9338624002411962],[],[],[],[],[],[],,,,1,0,1,0,32,0,32,0,439.7832143995911,,,,,,,,,,,,439.76756749954075,439.7832143995911,0.0002630995586514473,439.7832143995911,439.98354199994355,440.26705809962004,440.26705809962004,440.26705809962004,440.28371939994395,440.7021984998137,0.5,normal,0.43386240024119616,[-0.7935185185185185],[0.3416666666666667],[1],[0],[0],[0.9338624002411962],440.70260799955577,440.71745859924704,0.00026659946888685226,441.01758429966867,442.2694200994447,[],[],[],[],[],[],,,,,,,,,,617985,001,2024-12-03_13h49.43.100,Foreperiod_task,2024.2.1post4,60.068213507155185,2024-12-03 13h50.05.488214 -0800,
33,0,33,[-0.7935185185185185],[0.3416666666666667],[1],[0],[0],[0.8504506992176175],[],[],[],[],[],[],,,,1,0,1,0,33,0,33,0,442.28546530008316,,,,,,,,,,,,442.26977679971606,442.28546530008316,0.0002864999696612358,442.28546530008316,442.485215799883,442.76938609965146,442.76938609965146,442.76938609965146,442.78616059944034,443.12098959926516,0.5,normal,0.3504506992176175,[-0.7935185185185185],[0.3416666666666667],[1],[0],[0],[0.8504506992176175],443.12143159937114,443.1363009000197,0.00027769990265369415,443.43631260003895,444.38793249987066,[],[],[],[],[],[],,,,,,,,,,617985,001,2024-12-03_13h49.43.100,Foreperiod_task,2024.2.1post4,60.068213507155185,2024-12-03 13h50.05.488214 -0800,
34,0,34,[-0.7935185185185185],[0.3416666666666667],[1],[0],[0],[0.8669028002768755],[],[],[],[],[],[],,,,1,0,1,0,34,0,34,0,444.40382899995893,,,,,,,,,,,,444.38825669977814,444.40382899995893,0.00025479961186647415,444.40382899995893,444.60398899950087,444.88684599939734,444.88684599939734,444.88684599939734,444.90413379948586,445.2559186993167,0.5,normal,0.3669028002768755,[-0.7935185185185185],[0.3416666666666667],[1],[0],[0],[0.8669028002768755],445.25634979922324,445.27087119966745,0.00028640031814575195,445.571449900046,446.6232119994238,[],[],[],[],[],[],,,,,,,,,,617985,001,2024-12-03_13h49.43.100,Foreperiod_task,2024.2.1post4,60.068213507155185,2024-12-03 13h50.05.488214 -0800,
35,0,35,[-0.7935185185185185],[0.3416666666666667],[1],[0],[0],[2.3678286001086235],[],[],[],[],[],[],,,,1,0,1,0,35,0,35,0,446.6391181992367,,,,,,,,,,,,446.6235930994153,446.6391181992367,0.0002944003790616989,446.6391181992367,446.83911720011383,448.62385899946094,448.62385899946094,448.62385899946094,448.6407126998529,448.9922221992165,2,normal,0.3678286001086235,[-0.7935185185185185],[0.3416666666666667],[1],[0],[0],[2.3678286001086235],448.99265699926764,449.00765609927475,0.0002701999619603157,449.3079113997519,450.47575549967587,[],[],[],[],[],[],,,,,,,,,,617985,001,2024-12-03_13h49.43.100,Foreperiod_task,2024.2.1post4,60.068213507155185,2024-12-03 13h50.05.488214 -0800,
36,0,36,[-0.7935185185185185],[0.3416666666666667],[1],[0],[0],[0.8673617001622915],[],[],[],[],[],[],,,,1,0,1,0,36,0,36,0,450.49200269952416,,,,,,,,,,,,450.4759273994714,450.49200269952416,0.00013739988207817078,450.49200269952416,450.6923273000866,450.97592549957335,450.97592549957335,450.97592549957335,450.9927515992895,451.34401939995587,0.5,normal,0.3673617001622915,[-0.7935185185185185],[0.3416666666666667],[1],[0],[0],[0.8673617001622915],451.34447850007564,451.35968149919063,0.0002942001447081566,451.65989319980145,452.7615153994411,[],[],[],[],[],[],,,,,,,,,,617985,001,2024-12-03_13h49.43.100,Foreperiod_task,2024.2.1post4,60.068213507155185,2024-12-03 13h50.05.488214 -0800,
37,0,37,[-0.7935185185185185],[0.3416666666666667],[1],[0],[0],[0.8501714002341032],[],[],[],[],[],[],,,,1,0,1,0,37,0,37,0,452.7774498993531,,,,,,,,,,,,452.7618683995679,452.7774498993531,0.0002808002755045891,452.7774498993531,452.9768488993868,453.261088299565,453.261088299565,453.261088299565,453.27781579922885,453.61273079924285,0.5,normal,0.3501714002341032,[-0.7935185185185185],[0.3416666666666667],[1],[0],[0],[0.8501714002341032],453.6130922995508,453.62816389929503,0.0002462994307279587,453.9284525997937,454.97884939983487,[],[],[],[],[],[],,,,,,,,,,617985,001,2024-12-03_13h49.43.100,Foreperiod_task,2024.2.1post4,60.068213507155185,2024-12-03 13h50.05.488214 -0800,
38,0,38,[-0.7935185185185185],[0.3416666666666667],[1],[0],[0],[2.3197015998885036],[],[],[],[],[],[],,,,1,0,1,0,38,0,38,0,454.9959891997278,,,,,,,,,,,,454.9789702994749,454.9959891997278,9.410083293914795e-05,454.9959891997278,455.1961163999513,456.980315499939,456.980315499939,456.980315499939,456.9976015994325,457.2994901994243,2,normal,0.31970159988850355,[-0.7935185185185185],[0.3416666666666667],[1],[0],[0],[2.3197015998885036],457.29992239922285,457.31462129950523,0.0002965005114674568,457.6147746993229,458.85012950003147,[],[],[],[],[],[],,,,,,,,,,617985,001,2024-12-03_13h49.43.100,Foreperiod_task,2024.2.1post4,60.068213507155185,2024-12-03 13h50.05.488214 -0800,
39,0,39,[-0.7935185185185185],[0.3416666666666667],[1],[0],[0],[1.0334721999242902],[],[],[],[],[],[],,,,1,0,1,0,39,0,39,0,458.8660638993606,,,,,,,,,,,,458.8504977999255,458.8660638993606,0.0002910001203417778,458.8660638993606,459.06637510005385,459.34981229994446,459.34981229994446,459.34981229994446,459.36629479937255,459.8847811995074,0.5,normal,0.5334721999242902,[-0.7935185185185185],[0.3416666666666667],[1],[0],[0],[1.0334721999242902],459.8852201998234,459.9000033000484,0.00030060019344091415,460.20035549998283,461.1841918993741,[],[],[],[],[],[],,,,,,,,,,617985,001,2024-12-03_13h49.43.100,Foreperiod_task,2024.2.1post4,60.068213507155185,2024-12-03 13h50.05.488214 -0800,
40,0,40,[-0.7935185185185185],[0.3416666666666667],[1],[0],[0],[2.370174700394273],[],[],[],[],[],[],,,,1,0,1,0,40,0,40,0,461.2005806993693,,,,,,,,,,,,461.1843144996092,461.2005806993693,9.62996855378151e-05,461.2005806993693,461.4009308991954,463.1862122993916,463.1862122993916,463.1862122993916,463.2029185993597,463.55521930009127,2,normal,0.3701747003942728,[-0.7935185185185185],[0.3416666666666667],[1],[0],[0],[2.370174700394273],463.555712999776,463.5698339994997,0.00034980010241270065,463.8700536992401,465.22203850001097,[],[],[],[],[],[],,,,,,,,,,617985,001,2024-12-03_13h49.43.100,Foreperiod_task,2024.2.1post4,60.068213507155185,2024-12-03 13h50.05.488214 -0800,
41,0,41,[-0.7935185185185185],[0.3416666666666667],[1],[0],[0],[2.3515357999131083],[],[],[],[],[],[],,,,1,0,1,0,41,0,41,0,465.2378014996648,,,,,,,,,,,,465.22237649932504,465.2378014996648,0.0002709999680519104,465.2378014996648,465.4380006995052,467.2229830995202,467.2229830995202,467.2229830995202,467.23954099975526,467.5747416000813,2,normal,0.35153579991310835,[-0.7935185185185185],[0.3416666666666667],[1],[0],[0],[2.3515357999131083],467.57519189920276,467.5898830993101,0.00031499937176704407,467.89008679986,469.1759981997311,[],[],[],[],[],[],,,,,,,,,,617985,001,2024-12-03_13h49.43.100,Foreperiod_task,2024.2.1post4,60.068213507155185,2024-12-03 13h50.05.488214 -0800,
