thisN,thisTrialN,thisRepN,mouse.x,mouse.y,mouse.leftButton,mouse.midButton,mouse.rightButton,mouse.time,Intertrial_Mouse.x,Intertrial_Mouse.y,Intertrial_Mouse.leftButton,Intertrial_Mouse.midButton,Intertrial_Mouse.rightButton,Intertrial_Mouse.time,key_resp_5.keys,key_resp_5.rt,key_resp_5.duration,trials_3.thisRepN,trials_3.thisTrialN,trials_3.thisN,trials_3.thisIndex,trials_2.thisRepN,trials_2.thisTrialN,trials_2.thisN,trials_2.thisIndex,thisRow.t,notes,Welcome_Screen.started,Welcome_Text.started,mouse_2.started,Welcome_Screen.stopped,mouse_2.x,mouse_2.y,mouse_2.leftButton,mouse_2.midButton,mouse_2.rightButton,mouse_2.time,Trial_2.started,PLUS_FP.started,mouse.started,Photodiode_plus.started,Photodiode_plus.stopped,PLUS_FP.stopped,polygon.started,Photodiode_polygon.started,Photodiode_polygon.stopped,Trial_2.stopped,FixDur,Type,RT,trials_2.mouse.x,trials_2.mouse.y,trials_2.mouse.leftButton,trials_2.mouse.midButton,trials_2.mouse.rightButton,trials_2.mouse.time,Intertrial_Period.started,Photodiode_2.started,Intertrial_Mouse.started,Photodiode_2.stopped,Intertrial_Period.stopped,trials_2.Intertrial_Mouse.x,trials_2.Intertrial_Mouse.y,trials_2.Intertrial_Mouse.leftButton,trials_2.Intertrial_Mouse.midButton,trials_2.Intertrial_Mouse.rightButton,trials_2.Intertrial_Mouse.time,BREAK.started,key_resp_5.started,text_3.started,BREAK.stopped,trials_3.key_resp_5.keys,trials_3.key_resp_5.rt,trials_3.key_resp_5.duration,text.started,participant,session,date,expName,psychopyVersion,frameRate,expStart,
,,,,,,,,,,,,,,,,,,,,,,,,,,,,0.0028033999260514975,0.006620399886742234,0.00250410009175539,3.414682900067419,[0.128125],[0.31875],[1],[0],[0],[3.4111880999989808],,,,,,,,,,,,,,,,,,,,,,,,,,,,,,,,,,,,,,,818308,001,2025-02-03_07h59.07.197,Foreperiod_task,2024.2.4,89.99037099888842,2025-02-03 07h59.13.772298 -0800,
0,0,0,[0.128125],[0.31875],[1],[0],[0],[2.397158100036904],[],[],[],[],[],[],,,,0,0,0,0,0,0,0,0,3.4232101999223232,,,,,,,,,,,,3.4157022000290453,3.4232101999223232,0.0008945001754909754,3.4232101999223232,3.623379600001499,5.4125946999993175,5.4125946999993175,5.4125946999993175,5.423755099996924,5.813412100076675,2,task,0.3971581000369042,[0.128125],[0.31875],[1],[0],[0],[2.397158100036904],5.813542899908498,5.823377199936658,6.240000948309898e-05,6.123537099920213,7.2800771000329405,[],[],[],[],[],[],,,,,,,,,818308,001,2025-02-03_07h59.07.197,Foreperiod_task,2024.2.4,89.99037099888842,2025-02-03 07h59.13.772298 -0800,
1,0,1,[0.128125],[0.31875],[1],[0],[0],[1.8545759001281112],[],[],[],[],[],[],,,,0,0,0,0,1,0,1,0,7.29025200009346,,,,,,,,,,,,7.280354500049725,7.29025200009346,0.00021079997532069683,7.29025200009346,7.4900446000974625,8.75700689991936,8.75700689991936,8.75700689991936,8.768038399983197,9.135529400082305,1.4765942284660145,task,0.37798167166209673,[0.128125],[0.31875],[1],[0],[0],[1.8545759001281112],9.135647099930793,9.14550149999559,5.150004290044308e-05,9.445688900072128,10.679779900005087,[],[],[],[],[],[],,,,,,,,,818308,001,2025-02-03_07h59.07.197,Foreperiod_task,2024.2.4,89.99037099888842,2025-02-03 07h59.13.772298 -0800,
2,0,2,[0.128125],[0.31875],[1],[0],[0],[0.9444243998732418],[],[],[],[],[],[],,,,0,0,0,0,2,0,2,0,10.68999129999429,,,,,,,,,,,,10.680007300106809,10.68999129999429,0.0001680999994277954,10.68999129999429,10.890013299882412,11.17905699997209,11.17905699997209,11.17905699997209,11.190133899915963,11.6251475000754,0.5,task,0.4444243998732418,[0.128125],[0.31875],[1],[0],[0],[0.9444243998732418],11.625429299892858,11.634598900098354,0.00014139991253614426,11.934814899927005,13.202280800091103,[],[],[],[],[],[],,,,,,,,,818308,001,2025-02-03_07h59.07.197,Foreperiod_task,2024.2.4,89.99037099888842,2025-02-03 07h59.13.772298 -0800,
3,0,3,[0.128125],[0.31875],[1],[0],[0],[2.376723799854517],[],[],[],[],[],[],,,,0,0,0,0,3,0,3,0,13.212331800023094,,,,,,,,,,,,13.20264929998666,13.212331800023094,0.0002598999999463558,13.212331800023094,13.412389100063592,15.201598400017247,15.201598400017247,15.201598400017247,15.212622199906036,15.580142399994656,2,task,0.376723799854517,[0.128125],[0.31875],[1],[0],[0],[2.376723799854517],15.580306600080803,15.589658099925146,7.129996083676815e-05,15.889973199926317,17.024615600006655,[],[],[],[],[],[],,,,,,,,,818308,001,2025-02-03_07h59.07.197,Foreperiod_task,2024.2.4,89.99037099888842,2025-02-03 07h59.13.772298 -0800,
4,0,4,[0.128125],[0.31875],[1],[0],[0],[2.4560922000091523],[],[],[],[],[],[],,,,0,0,0,0,4,0,4,0,17.034681200049818,,,,,,,,,,,,17.02502020006068,17.034681200049818,0.0003170999698340893,17.034681200049818,17.234416299965233,19.023665300104767,19.023665300104767,19.023665300104767,19.034760399954394,19.482105900067836,2,task,0.4560922000091523,[0.128125],[0.31875],[1],[0],[0],[2.4560922000091523],19.482324700104073,19.490012200083584,0.00010359985753893852,19.789888199884444,20.7348239000421,[],[],[],[],[],[],,,,,,,,,818308,001,2025-02-03_07h59.07.197,Foreperiod_task,2024.2.4,89.99037099888842,2025-02-03 07h59.13.772298 -0800,
5,0,5,[0.128125],[0.31875],[1],[0],[0],[2.3778939000330865],[],[],[],[],[],[],,,,0,0,0,0,5,0,5,0,20.74555450002663,,,,,,,,,,,,20.734977399930358,20.74555450002663,0.00011890009045600891,20.74555450002663,20.945380700053647,22.734505099942908,22.734505099942908,22.734505099942908,22.74570450000465,23.113282799953595,2,task,0.37789390003308654,[0.128125],[0.31875],[1],[0],[0],[2.3778939000330865],23.113434199942276,23.12324279989116,6.46000262349844e-05,23.423150399932638,24.501529600005597,[],[],[],[],[],[],,,,,,,,,818308,001,2025-02-03_07h59.07.197,Foreperiod_task,2024.2.4,89.99037099888842,2025-02-03 07h59.13.772298 -0800,
6,0,6,[0.128125],[0.31875],[1],[0],[0],[2.477757199900225],[],[],[],[],[],[],,,,0,0,0,0,6,0,6,0,24.512044599978253,,,,,,,,,,,,24.501789100002497,24.512044599978253,0.00019989977590739727,24.512044599978253,24.712050500093028,26.50096939993091,26.50096939993091,26.50096939993091,26.512041799956933,26.98048619995825,2,task,0.4777571999002248,[0.128125],[0.31875],[1],[0],[0],[2.477757199900225],26.980717499973252,26.989700200036168,0.0001183999702334404,27.28975380002521,28.200219799997285,[],[],[],[],[],[],,,,,,,,,818308,001,2025-02-03_07h59.07.197,Foreperiod_task,2024.2.4,89.99037099888842,2025-02-03 07h59.13.772298 -0800,
7,0,7,[0.128125],[0.31875],[1],[0],[0],[0.9787471999879926],[],[],[],[],[],[],,,,0,0,0,0,7,0,7,0,28.210768799996004,,,,,,,,,,,,28.200544300023466,28.210768799996004,0.00026439991779625416,28.210768799996004,28.41191969998181,28.701082800049335,28.701082800049335,28.701082800049335,28.712050799978897,29.180014099925756,0.5,task,0.47874719998799264,[0.128125],[0.31875],[1],[0],[0],[0.9787471999879926],29.18036110000685,29.189747700002044,0.00014679995365440845,29.489651599898934,30.82300790003501,[],[],[],[],[],[],,,,,,,,,818308,001,2025-02-03_07h59.07.197,Foreperiod_task,2024.2.4,89.99037099888842,2025-02-03 07h59.13.772298 -0800,
8,0,8,[0.128125],[0.31875],[1],[0],[0],[2.423129899892956],[],[],[],[],[],[],,,,0,0,0,0,8,0,8,0,30.83422189997509,,,,,,,,,,,,30.823152099968866,30.83422189997509,0.00010389997623860836,30.83422189997509,31.03449960006401,32.82333040004596,32.82333040004596,32.82333040004596,32.83438339992426,33.24696579994634,2,task,0.423129899892956,[0.128125],[0.31875],[1],[0],[0],[2.423129899892956],33.2472548999358,33.25611969991587,0.00014789984561502934,33.55616110004485,34.590137500083074,[],[],[],[],[],[],,,,,,,,,818308,001,2025-02-03_07h59.07.197,Foreperiod_task,2024.2.4,89.99037099888842,2025-02-03 07h59.13.772298 -0800,
9,0,9,[0.128125],[0.31875],[1],[0],[0],[0.9113213000819087],[],[],[],[],[],[],,,,0,0,0,0,9,0,9,0,34.6007365998812,,,,,,,,,,,,34.590432099998,34.6007365998812,0.00023490004241466522,34.6007365998812,34.80055809998885,35.0897351000458,35.0897351000458,35.0897351000458,35.10092670004815,35.50261599989608,0.5,task,0.4113213000819087,[0.128125],[0.31875],[1],[0],[0],[0.9113213000819087],35.50288649997674,35.51183349988423,0.00013090018182992935,35.81160630006343,37.11224270006642,[],[],[],[],[],[],,,,,,,,,818308,001,2025-02-03_07h59.07.197,Foreperiod_task,2024.2.4,89.99037099888842,2025-02-03 07h59.13.772298 -0800,
0,0,0,,,,,,,,,,,,,space,0.9592325000558048,None,0,0,0,0,,,,,,,,,,,,,,,,,,,,,,,,,,,,,,,,,,,,,,,,,,,,,,,37.11404410004616,37.12811419996433,37.12811419996433,38.09089570003562,space,0.9592325000558048,None,,818308,001,2025-02-03_07h59.07.197,Foreperiod_task,2024.2.4,89.99037099888842,2025-02-03 07h59.13.772298 -0800,
0,0,0,[0.128125],[0.31875],[1],[0],[0],[2.1101859000045806],[],[],[],[],[],[],,,,1,0,1,0,0,0,0,0,38.100621700054035,,,,,,,,,,,,38.09152760007419,38.100621700054035,0.0005859001539647579,38.100621700054035,38.30051969992928,39.5011432999745,39.5011432999745,39.5011432999745,39.51230719988234,40.20241319993511,1.4089082201732035,task,0.7012776798313771,[0.128125],[0.31875],[1],[0],[0],[2.1101859000045806],40.20264669996686,40.211876600049436,9.530014358460903e-05,40.511768399970606,41.434918500017375,[],[],[],[],[],[],,,,,,,,,818308,001,2025-02-03_07h59.07.197,Foreperiod_task,2024.2.4,89.99037099888842,2025-02-03 07h59.13.772298 -0800,
1,0,1,[0.128125],[0.31875],[1],[0],[0],[2.377586300019175],[],[],[],[],[],[],,,,1,0,1,0,1,0,1,0,41.44528939994052,,,,,,,,,,,,41.43524120002985,41.44528939994052,0.00027549988590180874,41.44528939994052,41.64527489989996,43.43431099993177,43.43431099993177,43.43431099993177,43.44536520005204,43.81390960002318,2,task,0.3775863000191748,[0.128125],[0.31875],[1],[0],[0],[2.377586300019175],43.81414039991796,43.82310310006142,0.00010599987581372261,44.12193990009837,45.39009210001677,[],[],[],[],[],[],,,,,,,,,818308,001,2025-02-03_07h59.07.197,Foreperiod_task,2024.2.4,89.99037099888842,2025-02-03 07h59.13.772298 -0800,
2,0,2,[0.128125],[0.31875],[1],[0],[0],[2.3994224998168647],[],[],[],[],[],[],,,,1,0,1,0,2,0,2,0,45.40062179998495,,,,,,,,,,,,45.39038069988601,45.40062179998495,0.00026400014758110046,45.40062179998495,45.60066100000404,47.389935499988496,47.389935499988496,47.389935499988496,47.40103269997053,47.7906502999831,2,task,0.39942249981686473,[0.128125],[0.31875],[1],[0],[0],[2.3994224998168647],47.79090950009413,47.80080379988067,0.0001083998940885067,48.09939770004712,49.15713190007955,[],[],[],[],[],[],,,,,,,,,818308,001,2025-02-03_07h59.07.197,Foreperiod_task,2024.2.4,89.99037099888842,2025-02-03 07h59.13.772298 -0800,
3,0,3,[0.128125],[0.31875],[1],[0],[0],[1.788494799984619],[],[],[],[],[],[],,,,1,0,1,0,3,0,3,0,49.16771570011042,,,,,,,,,,,,49.15753880003467,49.16771570011042,0.00033459998667240143,49.16771570011042,49.367341300006956,50.40069660008885,50.40069660008885,50.40069660008885,50.41179300006479,50.94695480004884,1.2485824995931238,task,0.5399123003914952,[0.128125],[0.31875],[1],[0],[0],[1.788494799984619],50.947201299946755,50.95611199992709,0.00011139991693198681,51.25600440008566,52.356645700056106,[],[],[],[],[],[],,,,,,,,,818308,001,2025-02-03_07h59.07.197,Foreperiod_task,2024.2.4,89.99037099888842,2025-02-03 07h59.13.772298 -0800,
4,0,4,[0.128125],[0.31875],[1],[0],[0],[2.3446293000597507],[],[],[],[],[],[],,,,1,0,1,0,4,0,4,0,52.367154400097206,,,,,,,,,,,,52.356843000045046,52.367154400097206,0.00012260000221431255,52.367154400097206,52.56716559990309,54.3561597999651,54.3561597999651,54.3561597999651,54.36719570006244,54.702101700007915,2,task,0.3446293000597507,[0.128125],[0.31875],[1],[0],[0],[2.3446293000597507],54.702324999962,54.71166049991734,0.00011649983935058117,55.01153160003014,56.212110799970105,[],[],[],[],[],[],,,,,,,,,818308,001,2025-02-03_07h59.07.197,Foreperiod_task,2024.2.4,89.99037099888842,2025-02-03 07h59.13.772298 -0800,
5,0,5,[0.128125],[0.31875],[1],[0],[0],[0.8888272999320179],[],[],[],[],[],[],,,,1,0,1,0,5,0,5,0,56.222770699998364,,,,,,,,,,,,56.21241810009815,56.222770699998364,0.00023950007744133472,56.222770699998364,56.42267069988884,56.711708900053054,56.711708900053054,56.711708900053054,56.72295329999179,57.101839900016785,0.5,task,0.3888272999320179,[0.128125],[0.31875],[1],[0],[0],[0.8888272999320179],57.10205219988711,57.11151729989797,9.930017404258251e-05,57.411506900098175,58.71154369995929,[],[],[],[],[],[],,,,,,,,,818308,001,2025-02-03_07h59.07.197,Foreperiod_task,2024.2.4,89.99037099888842,2025-02-03 07h59.13.772298 -0800,
6,0,6,[0.128125],[0.31875],[1],[0],[0],[2.322878299979493],[],[],[],[],[],[],,,,1,0,1,0,6,0,6,0,58.72260440001264,,,,,,,,,,,,58.7116956000682,58.72260440001264,0.00011979998089373112,58.72260440001264,58.92288600001484,60.711532399989665,60.711532399989665,60.711532399989665,60.722640600055456,61.03531840001233,2,task,0.322878299979493,[0.128125],[0.31875],[1],[0],[0],[2.322878299979493],61.03552530007437,61.044801800046116,0.00011020014062523842,61.344552299939096,62.34493479994126,[],[],[],[],[],[],,,,,,,,,818308,001,2025-02-03_07h59.07.197,Foreperiod_task,2024.2.4,89.99037099888842,2025-02-03 07h59.13.772298 -0800,
7,0,7,[0.128125],[0.31875],[1],[0],[0],[2.4334584998432547],[],[],[],[],[],[],,,,1,0,1,0,7,0,7,0,62.3558980000671,,,,,,,,,,,,62.34510549996048,62.3558980000671,0.00013360008597373962,62.3558980000671,62.555994499940425,64.34480599989183,64.34480599989183,64.34480599989183,64.35604620003141,64.7790145999752,2,task,0.4334584998432547,[0.128125],[0.31875],[1],[0],[0],[2.4334584998432547],64.77914089988917,64.78907139995135,5.8300094678997993e-05,65.08898229990155,66.01196909998544,[],[],[],[],[],[],,,,,,,,,818308,001,2025-02-03_07h59.07.197,Foreperiod_task,2024.2.4,89.99037099888842,2025-02-03 07h59.13.772298 -0800,
8,0,8,[0.128125],[0.31875],[1],[0],[0],[2.4004630998242646],[],[],[],[],[],[],,,,1,0,1,0,8,0,8,0,66.02241110010073,,,,,,,,,,,,66.01233469997533,66.02241110010073,0.0002794000320136547,66.02241110010073,66.22248560003936,68.01181269995868,68.01181269995868,68.01181269995868,68.02283590007573,68.41366870002821,2,task,0.40046309982426465,[0.128125],[0.31875],[1],[0],[0],[2.4004630998242646],68.41394630004652,68.42285649990663,0.0001129999291151762,68.72273269994184,69.69052969990298,[],[],[],[],[],[],,,,,,,,,818308,001,2025-02-03_07h59.07.197,Foreperiod_task,2024.2.4,89.99037099888842,2025-02-03 07h59.13.772298 -0800,
9,0,9,[0.128125],[0.31875],[1],[0],[0],[0.9659049999900162],[],[],[],[],[],[],,,,1,0,1,0,9,0,9,0,69.7004855000414,,,,,,,,,,,,69.69083800003864,69.7004855000414,0.00023750006221234798,69.7004855000414,69.90033550001681,70.18961660005152,70.18961660005152,70.18961660005152,70.20062369992957,70.6579100000672,0.5,task,0.4659049999900162,[0.128125],[0.31875],[1],[0],[0],[0.9659049999900162],70.65822870004922,70.66726929997094,0.00014720018953084946,70.96716540004127,72.23392389994115,[],[],[],[],[],[],,,,,,,,,818308,001,2025-02-03_07h59.07.197,Foreperiod_task,2024.2.4,89.99037099888842,2025-02-03 07h59.13.772298 -0800,
1,0,1,,,,,,,,,,,,,space,1.8378885998390615,None,1,0,1,0,,,,,,,,,,,,,,,,,,,,,,,,,,,,,,,,,,,,,,,,,,,,,,,72.23518559988588,72.24483620002866,72.24483620002866,74.09097520005889,space,1.8378885998390615,None,,818308,001,2025-02-03_07h59.07.197,Foreperiod_task,2024.2.4,89.99037099888842,2025-02-03 07h59.13.772298 -0800,
0,0,0,[0.128125],[0.31875],[1],[0],[0],[2.4538289001211524],[],[],[],[],[],[],,,,2,0,2,0,0,0,0,0,74.10035199997947,,,,,,,,,,,,74.0914797000587,74.10035199997947,0.000480300048366189,74.10035199997947,74.30020860000513,76.0891571000684,76.0891571000684,76.0891571000684,76.10031770006754,76.54603220010176,2,task,0.4538289001211524,[0.128125],[0.31875],[1],[0],[0],[2.4538289001211524],76.54619450005703,76.55575429997407,6.95998314768076e-05,76.85590899991803,78.21241970011033,[],[],[],[],[],[],,,,,,,,,818308,001,2025-02-03_07h59.07.197,Foreperiod_task,2024.2.4,89.99037099888842,2025-02-03 07h59.13.772298 -0800,
1,0,1,[0.128125],[0.31875],[1],[0],[0],[2.476805199868977],[],[],[],[],[],[],,,,2,0,2,0,1,0,1,0,78.2224934999831,,,,,,,,,,,,78.21273529995233,78.2224934999831,0.0002491001505404711,78.2224934999831,78.42236179998145,80.21158319991082,80.21158319991082,80.21158319991082,80.22295679990202,80.69008379988372,2,task,0.47680519986897707,[0.128125],[0.31875],[1],[0],[0],[2.476805199868977],80.69019960006699,80.70002919994295,5.469983443617821e-05,81.00010389997624,82.34553899988532,[],[],[],[],[],[],,,,,,,,,818308,001,2025-02-03_07h59.07.197,Foreperiod_task,2024.2.4,89.99037099888842,2025-02-03 07h59.13.772298 -0800,
2,0,2,[0.128125],[0.31875],[1],[0],[0],[2.3994148999918252],[],[],[],[],[],[],,,,2,0,2,0,2,0,2,0,82.35560719994828,,,,,,,,,,,,82.34579070005566,82.35560719994828,0.00020899996161460876,82.35560719994828,82.55563930002972,84.34489979990758,84.34489979990758,84.34489979990758,84.3560222000815,84.74584329989739,2,task,0.3994148999918252,[0.128125],[0.31875],[1],[0],[0],[2.3994148999918252],84.74596339999698,84.75574179994874,5.510007031261921e-05,85.05483979987912,86.034052999923,[],[],[],[],[],[],,,,,,,,,818308,001,2025-02-03_07h59.07.197,Foreperiod_task,2024.2.4,89.99037099888842,2025-02-03 07h59.13.772298 -0800,
3,0,3,[0.128125],[0.31875],[1],[0],[0],[0.9113601001445204],[],[],[],[],[],[],,,,2,0,2,0,3,0,3,0,86.04447890003212,,,,,,,,,,,,86.0343154000584,86.04447890003212,0.00020200014114379883,86.04447890003212,86.24451139988378,86.53364689997397,86.53364689997397,86.53364689997397,86.54470369988121,86.94660190003924,0.5,task,0.4113601001445204,[0.128125],[0.31875],[1],[0],[0],[0.9113601001445204],86.94682219997048,86.95575960003771,0.0001012999564409256,87.25586350006051,88.27846119995229,[],[],[],[],[],[],,,,,,,,,818308,001,2025-02-03_07h59.07.197,Foreperiod_task,2024.2.4,89.99037099888842,2025-02-03 07h59.13.772298 -0800,
4,0,4,[0.128125],[0.31875],[1],[0],[0],[0.8558273001108319],[],[],[],[],[],[],,,,2,0,2,0,4,0,4,0,88.28910679998808,,,,,,,,,,,,88.27864450006746,88.28910679998808,0.0001363998744636774,88.28910679998808,88.48910299991257,88.77799080009572,88.77799080009572,88.77799080009572,88.7892567999661,89.13525789999403,0.5,task,0.35582730011083186,[0.128125],[0.31875],[1],[0],[0],[0.8558273001108319],89.13549309992231,89.14451320003718,0.00010329997166991234,89.44453460001387,90.61206219997257,[],[],[],[],[],[],,,,,,,,,818308,001,2025-02-03_07h59.07.197,Foreperiod_task,2024.2.4,89.99037099888842,2025-02-03 07h59.13.772298 -0800,
5,0,5,[0.128125],[0.31875],[1],[0],[0],[0.8550650000106543],[],[],[],[],[],[],,,,2,0,2,0,5,0,5,0,90.62255800003186,,,,,,,,,,,,90.61242290004157,90.62255800003186,0.000287200091406703,90.62255800003186,90.82208650000393,91.11138159991242,91.11138159991242,91.11138159991242,91.12253080005758,91.46830529998988,0.5,task,0.35506500001065433,[0.128125],[0.31875],[1],[0],[0],[0.8550650000106543],91.46850079996511,91.47780829994008,7.389998063445091e-05,91.77788900001906,92.78993660002016,[],[],[],[],[],[],,,,,,,,,818308,001,2025-02-03_07h59.07.197,Foreperiod_task,2024.2.4,89.99037099888842,2025-02-03 07h59.13.772298 -0800,
6,0,6,[0.128125],[0.31875],[1],[0],[0],[1.5546519998461008],[],[],[],[],[],[],,,,2,0,2,0,6,0,6,0,92.80000649997965,,,,,,,,,,,,92.79034529998899,92.80000649997965,0.0004058999475091696,92.80000649997965,93.00005470006727,,,,,94.34607689990662,2,task,-0.4453480001538992,[0.128125],[0.31875],[1],[0],[0],[1.5546519998461008],94.34627939993516,94.35620300006121,9.169988334178925e-05,94.65578939998522,95.7452388999518,[],[],[],[],[],[],,,,,,,,94.35620300006121,818308,001,2025-02-03_07h59.07.197,Foreperiod_task,2024.2.4,89.99037099888842,2025-02-03 07h59.13.772298 -0800,
7,0,7,[0.128125],[0.31875],[1],[0],[0],[1.1115242999512702],[],[],[],[],[],[],,,,2,0,2,0,7,0,7,0,95.7557268999517,,,,,,,,,,,,95.74547480000183,95.7557268999517,0.00016689999029040337,95.7557268999517,95.95569389988668,96.24454109999351,96.24454109999351,96.24454109999351,96.25570630002767,96.85784849990159,0.5,task,0.6115242999512702,[0.128125],[0.31875],[1],[0],[0],[1.1115242999512702],96.85819660010748,96.86671600001864,0.00011730007827281952,97.16667519998737,98.04538200004026,[],[],[],[],[],[],,,,,,,,,818308,001,2025-02-03_07h59.07.197,Foreperiod_task,2024.2.4,89.99037099888842,2025-02-03 07h59.13.772298 -0800,
8,0,8,[0.128125],[0.31875],[1],[0],[0],[0.9997972999699414],[],[],[],[],[],[],,,,2,0,2,0,8,0,8,0,98.0556999000255,,,,,,,,,,,,98.04572540009394,98.0556999000255,0.00027279998175799847,98.0556999000255,98.2556396999862,98.54474340006709,98.54474340006709,98.54474340006709,98.55589310009964,99.04653730010614,0.5,task,0.4997972999699414,[0.128125],[0.31875],[1],[0],[0],[0.9997972999699414],99.04676640010439,99.0555175000336,0.00010329997166991234,99.35554859996773,100.601161000086,[],[],[],[],[],[],,,,,,,,,818308,001,2025-02-03_07h59.07.197,Foreperiod_task,2024.2.4,89.99037099888842,2025-02-03 07h59.13.772298 -0800,
9,0,9,[0.128125],[0.31875],[1],[0],[0],[2.520714099984616],[],[],[],[],[],[],,,,2,0,2,0,9,0,9,0,100.61105909990147,,,,,,,,,,,,100.6015220999252,100.61105909990147,0.00027389987371861935,100.61105909990147,100.81073560006917,101.10023889993317,101.10023889993317,101.10023889993317,101.11120319995098,103.12279819999821,0.5,task,2.020714099984616,[0.128125],[0.31875],[1],[0],[0],[2.520714099984616],103.12296529999003,103.1329663998913,8.950009942054749e-05,103.43325000000186,104.70077229989693,[],[],[],[],[],[],,,,,,,,,818308,001,2025-02-03_07h59.07.197,Foreperiod_task,2024.2.4,89.99037099888842,2025-02-03 07h59.13.772298 -0800,
2,0,2,,,,,,,,,,,,,space,1.3744915002025664,None,2,0,2,0,,,,,,,,,,,,,,,,,,,,,,,,,,,,,,,,,,,,,,,,,,,,,,,104.70394439995289,104.71094379993156,104.71094379993156,106.09097160003148,space,1.3744915002025664,None,,818308,001,2025-02-03_07h59.07.197,Foreperiod_task,2024.2.4,89.99037099888842,2025-02-03 07h59.13.772298 -0800,
0,0,0,[0.128125],[0.31875],[1],[0],[0],[1.0869467998854816],[],[],[],[],[],[],,,,3,0,3,0,0,0,0,0,106.09992669988424,,,,,,,,,,,,106.09158169990405,106.09992669988424,0.0005771000869572163,106.09992669988424,106.30005509988405,106.58886280003935,106.58886280003935,106.58886280003935,106.59996549994685,107.17942079994828,0.5,task,0.5869467998854816,[0.128125],[0.31875],[1],[0],[0],[1.0869467998854816],107.1796915999148,107.188647700008,0.00011039990931749344,107.4888088000007,108.6780344999861,[],[],[],[],[],[],,,,,,,,,818308,001,2025-02-03_07h59.07.197,Foreperiod_task,2024.2.4,89.99037099888842,2025-02-03 07h59.13.772298 -0800,
1,0,1,[0.128125],[0.31875],[1],[0],[0],[2.4116456999909133],[],[],[],[],[],[],,,,3,0,3,0,1,0,1,0,108.68865419994108,,,,,,,,,,,,108.67817520000972,108.68865419994108,0.00010810000821948051,108.68865419994108,108.88856670004316,110.67771640000865,110.67771640000865,110.67771640000865,110.6887648999691,111.09076140006073,2,task,0.41164569999091327,[0.128125],[0.31875],[1],[0],[0],[2.4116456999909133],111.09100969997235,111.09987240005285,0.00011359993368387222,111.3998829999473,112.76693759998307,[],[],[],[],[],[],,,,,,,,,818308,001,2025-02-03_07h59.07.197,Foreperiod_task,2024.2.4,89.99037099888842,2025-02-03 07h59.13.772298 -0800,
2,0,2,[0.128125],[0.31875],[1],[0],[0],[1.088751700008288],[],[],[],[],[],[],,,,3,0,3,0,2,0,2,0,112.7774122999981,,,,,,,,,,,,112.76721889991313,112.7774122999981,0.0002275998704135418,112.7774122999981,112.97732160007581,113.26659999997355,113.26659999997355,113.26659999997355,113.27768329996616,113.85660589998588,0.5,task,0.588751700008288,[0.128125],[0.31875],[1],[0],[0],[1.088751700008288],113.85684600006789,113.86612050002441,0.00010429997928440571,114.16658479999751,115.37802699999884,[],[],[],[],[],[],,,,,,,,,818308,001,2025-02-03_07h59.07.197,Foreperiod_task,2024.2.4,89.99037099888842,2025-02-03 07h59.13.772298 -0800,
3,0,3,[0.128125],[0.31875],[1],[0],[0],[1.833320900099352],[],[],[],[],[],[],,,,3,0,3,0,3,0,3,0,115.38860989990644,,,,,,,,,,,,115.3782637999393,115.38860989990644,0.00018500001169741154,115.38860989990644,115.58856240008026,116.81108430004679,116.81108430004679,116.81108430004679,116.8221007999964,117.21230920008384,1.4310546091592349,task,0.4022662909401171,[0.128125],[0.31875],[1],[0],[0],[1.833320900099352],117.2125349000562,117.22190900007263,9.409990161657333e-05,117.52181600010954,118.86682219989598,[],[],[],[],[],[],,,,,,,,,818308,001,2025-02-03_07h59.07.197,Foreperiod_task,2024.2.4,89.99037099888842,2025-02-03 07h59.13.772298 -0800,
4,0,4,[0.128125],[0.31875],[1],[0],[0],[2.4113622999284416],[],[],[],[],[],[],,,,3,0,3,0,4,0,4,0,118.87737810006365,,,,,,,,,,,,118.86712220008485,118.87737810006365,0.0002429999876767397,118.87737810006365,119.07738179992884,120.86626449995674,120.86626449995674,120.86626449995674,120.87735889991745,121.2795053999871,2,task,0.41136229992844164,[0.128125],[0.31875],[1],[0],[0],[2.4113622999284416],121.27982480009086,121.28856989997439,0.00015590013936161995,121.58845730009489,122.6785460000392,[],[],[],[],[],[],,,,,,,,,818308,001,2025-02-03_07h59.07.197,Foreperiod_task,2024.2.4,89.99037099888842,2025-02-03 07h59.13.772298 -0800,
5,0,5,[0.128125],[0.31875],[1],[0],[0],[1.5001383000053465],[],[],[],[],[],[],,,,3,0,3,0,5,0,5,0,122.68864990002476,,,,,,,,,,,,122.67887430009432,122.68864990002476,0.00025500007905066013,122.68864990002476,122.88863470009528,123.17768920003437,123.17768920003437,123.17768920003437,123.18862870009616,124.1800760999322,0.5,task,1.0001383000053465,[0.128125],[0.31875],[1],[0],[0],[1.5001383000053465],124.18035760009661,124.18857649993151,0.00012420001439750195,124.48841960006393,125.7111903000623,[],[],[],[],[],[],,,,,,,,,818308,001,2025-02-03_07h59.07.197,Foreperiod_task,2024.2.4,89.99037099888842,2025-02-03 07h59.13.772298 -0800,
6,0,6,[0.128125],[0.31875],[1],[0],[0],[2.411151200067252],[],[],[],[],[],[],,,,3,0,3,0,6,0,6,0,125.72168050007895,,,,,,,,,,,,125.71149550005794,125.72168050007895,0.0002679999452084303,125.72168050007895,125.92165599996224,127.71084249997512,127.71084249997512,127.71084249997512,127.72194870002568,128.1233765000943,2,task,0.4111512000672519,[0.128125],[0.31875],[1],[0],[0],[2.411151200067252],128.12358539993875,128.13290779991075,0.00010390020906925201,128.43309010006487,129.69987030001357,[],[],[],[],[],[],,,,,,,,,818308,001,2025-02-03_07h59.07.197,Foreperiod_task,2024.2.4,89.99037099888842,2025-02-03 07h59.13.772298 -0800,
7,0,7,[0.128125],[0.31875],[1],[0],[0],[2.3770634999964386],[],[],[],[],[],[],,,,3,0,3,0,7,0,7,0,129.71060779993422,,,,,,,,,,,,129.70004960009828,129.71060779993422,0.00014599994756281376,129.71060779993422,129.9106825001072,131.69967569992878,131.69967569992878,131.69967569992878,131.71071229991503,132.07800280000083,2,task,0.3770634999964386,[0.128125],[0.31875],[1],[0],[0],[2.3770634999964386],132.07823239988647,132.08731570001692,0.00011010002344846725,132.38824349991046,133.5779158999212,[],[],[],[],[],[],,,,,,,,,818308,001,2025-02-03_07h59.07.197,Foreperiod_task,2024.2.4,89.99037099888842,2025-02-03 07h59.13.772298 -0800,
8,0,8,[0.128125],[0.31875],[1],[0],[0],[1.078371400013566],[],[],[],[],[],[],,,,3,0,3,0,8,0,8,0,133.58833439997397,,,,,,,,,,,,133.5781960999593,133.58833439997397,0.0002437999937683344,133.58833439997397,133.7885793999303,134.07729339995421,134.07729339995421,134.07729339995421,134.08849389990792,134.65762419998646,0.5,task,0.578371400013566,[0.128125],[0.31875],[1],[0],[0],[1.078371400013566],134.65787809994072,134.66599610005505,0.00011650007218122482,134.96603360003792,135.97802029992454,[],[],[],[],[],[],,,,,,,,,818308,001,2025-02-03_07h59.07.197,Foreperiod_task,2024.2.4,89.99037099888842,2025-02-03 07h59.13.772298 -0800,
9,0,9,[0.128125],[0.31875],[1],[0],[0],[1.1113875000737607],[],[],[],[],[],[],,,,3,0,3,0,9,0,9,0,135.98841349990107,,,,,,,,,,,,135.97824750002474,135.98841349990107,0.0001604000572115183,135.98841349990107,136.1882611999754,136.47743400000036,136.47743400000036,136.47743400000036,136.48843170003965,137.0904172998853,0.5,task,0.6113875000737607,[0.128125],[0.31875],[1],[0],[0],[1.1113875000737607],137.09065370005555,137.09956469992176,0.00011470005847513676,137.39954679994844,138.71095860004425,[],[],[],[],[],[],,,,,,,,,818308,001,2025-02-03_07h59.07.197,Foreperiod_task,2024.2.4,89.99037099888842,2025-02-03 07h59.13.772298 -0800,
3,0,3,,,,,,,,,,,,,space,2.335359400138259,None,3,0,3,0,,,,,,,,,,,,,,,,,,,,,,,,,,,,,,,,,,,,,,,,,,,,,,,138.71373840002343,138.72160910000093,138.72160910000093,141.06791389989667,space,2.335359400138259,None,,818308,001,2025-02-03_07h59.07.197,Foreperiod_task,2024.2.4,89.99037099888842,2025-02-03 07h59.13.772298 -0800,
0,0,0,[0.128125],[0.31875],[1],[0],[0],[0.8875396000221372],[],[],[],[],[],[],,,,4,0,4,0,0,0,0,0,141.0772259000223,,,,,,,,,,,,141.06858410011046,141.0772259000223,0.0006460000295192003,141.0772259000223,141.27693379996344,141.5660866999533,141.5660866999533,141.5660866999533,141.57722650002688,141.95701000001281,0.5,task,0.38753960002213717,[0.128125],[0.31875],[1],[0],[0],[0.8875396000221372],141.95732249994762,141.96594709996134,0.00013839988969266415,142.2659990999382,143.39998969994485,[],[],[],[],[],[],,,,,,,,,818308,001,2025-02-03_07h59.07.197,Foreperiod_task,2024.2.4,89.99037099888842,2025-02-03 07h59.13.772298 -0800,
1,0,1,[0.128125],[0.31875],[1],[0],[0],[0.9886437999084592],[],[],[],[],[],[],,,,4,0,4,0,1,0,1,0,143.41032660007477,,,,,,,,,,,,143.40029600006528,143.41032660007477,0.00023410003632307053,143.41032660007477,143.6103644000832,143.89944799989462,143.89944799989462,143.89944799989462,143.91073699994013,144.38972350000404,0.5,task,0.4886437999084592,[0.128125],[0.31875],[1],[0],[0],[0.9886437999084592],144.38994730007835,144.39912350010127,9.849993512034416e-05,144.69931749999523,145.84410639991984,[],[],[],[],[],[],,,,,,,,,818308,001,2025-02-03_07h59.07.197,Foreperiod_task,2024.2.4,89.99037099888842,2025-02-03 07h59.13.772298 -0800,
2,0,2,[0.128125],[0.31875],[1],[0],[0],[0.8666021998506039],[],[],[],[],[],[],,,,4,0,4,0,2,0,2,0,145.85459119989537,,,,,,,,,,,,145.84425999992527,145.85459119989537,0.0001238998956978321,145.85459119989537,146.05478899995796,146.34400789998472,146.34400789998472,146.34400789998472,146.35503649991006,146.71169200004078,0.5,task,0.36660219985060394,[0.128125],[0.31875],[1],[0],[0],[0.8666021998506039],146.71200209995732,146.72141649993137,0.00011999998241662979,147.0216840999201,148.02276220009662,[],[],[],[],[],[],,,,,,,,,818308,001,2025-02-03_07h59.07.197,Foreperiod_task,2024.2.4,89.99037099888842,2025-02-03 07h59.13.772298 -0800,
3,0,3,[0.128125],[0.31875],[1],[0],[0],[1.6325634999666363],[],[],[],[],[],[],,,,4,0,4,0,3,0,3,0,148.03272089990787,,,,,,,,,,,,148.02307930006646,148.03272089990787,0.00023559993132948875,148.03272089990787,148.23271379992366,149.28849629987963,149.28849629987963,149.28849629987963,149.29965670011006,149.65655649988912,1.2695406770254272,task,0.36302282294120913,[0.128125],[0.31875],[1],[0],[0],[1.6325634999666363],149.65684149996378,149.66601040004753,0.0001468001864850521,149.96606269991025,150.85510740010068,[],[],[],[],[],[],,,,,,,,,818308,001,2025-02-03_07h59.07.197,Foreperiod_task,2024.2.4,89.99037099888842,2025-02-03 07h59.13.772298 -0800,
4,0,4,[0.128125],[0.31875],[1],[0],[0],[1.18974669999443],[],[],[],[],[],[],,,,4,0,4,0,4,0,4,0,150.86574369994923,,,,,,,,,,,,150.85524570010602,150.86574369994923,0.00010609999299049377,150.86574369994923,151.06595390010625,151.35502850008197,151.35502850008197,151.35502850008197,151.36626979988068,152.04587820009328,0.5,task,0.68974669999443,[0.128125],[0.31875],[1],[0],[0],[1.18974669999443],152.04613859998062,152.05492209992371,0.00014619994908571243,152.35480319987983,153.45570409996435,[],[],[],[],[],[],,,,,,,,,818308,001,2025-02-03_07h59.07.197,Foreperiod_task,2024.2.4,89.99037099888842,2025-02-03 07h59.13.772298 -0800,
5,0,5,[0.128125],[0.31875],[1],[0],[0],[2.3656780999153852],[],[],[],[],[],[],,,,4,0,4,0,5,0,5,0,153.4660078000743,,,,,,,,,,,,153.45613690000027,153.4660078000743,0.0003505998756736517,153.4660078000743,153.6660978998989,155.4552029001061,155.4552029001061,155.4552029001061,155.46617259993218,155.8223484000191,2,task,0.36567809991538525,[0.128125],[0.31875],[1],[0],[0],[2.3656780999153852],155.82246170006692,155.83229689998552,5.419994704425335e-05,156.13145980006084,157.155797699932,[],[],[],[],[],[],,,,,,,,,818308,001,2025-02-03_07h59.07.197,Foreperiod_task,2024.2.4,89.99037099888842,2025-02-03 07h59.13.772298 -0800,
6,0,6,[0.128125],[0.31875],[1],[0],[0],[1.710616199998185],[],[],[],[],[],[],,,,4,0,4,0,6,0,6,0,157.16568570001982,,,,,,,,,,,,157.15608790004626,157.16568570001982,0.00022529996931552887,157.16568570001982,157.36554619995877,158.32153950002976,158.32153950002976,158.32153950002976,158.33270270004869,158.8675359999761,1.1706225428742503,task,0.5399936571239348,[0.128125],[0.31875],[1],[0],[0],[1.710616199998185],158.86774879996665,158.87704230006784,8.929986506700516e-05,159.17681080009788,160.5552153000608,[],[],[],[],[],[],,,,,,,,,818308,001,2025-02-03_07h59.07.197,Foreperiod_task,2024.2.4,89.99037099888842,2025-02-03 07h59.13.772298 -0800,
7,0,7,[0.128125],[0.31875],[1],[0],[0],[0.8882699999958277],[],[],[],[],[],[],,,,4,0,4,0,7,0,7,0,160.56564339995384,,,,,,,,,,,,160.55549459997565,160.56564339995384,0.00020619994029402733,160.56564339995384,160.76563740009442,161.05491980002262,161.05491980002262,161.05491980002262,161.06651460006833,161.44431920000352,0.5,task,0.3882699999958277,[0.128125],[0.31875],[1],[0],[0],[0.8882699999958277],161.44446150003932,161.4544981000945,6.869994103908539e-05,161.7545914000366,162.89968440006487,[],[],[],[],[],[],,,,,,,,,818308,001,2025-02-03_07h59.07.197,Foreperiod_task,2024.2.4,89.99037099888842,2025-02-03 07h59.13.772298 -0800,
8,0,8,[0.128125],[0.31875],[1],[0],[0],[2.3779245999176055],[],[],[],[],[],[],,,,4,0,4,0,8,0,8,0,162.91000299993902,,,,,,,,,,,,162.89998689992353,162.91000299993902,0.00023809983395040035,162.91000299993902,163.11017200001515,164.89917109999806,164.89917109999806,164.89917109999806,164.91033479990438,165.27872149995528,2,task,0.3779245999176055,[0.128125],[0.31875],[1],[0],[0],[2.3779245999176055],165.27893949998543,165.28781770006754,9.660003706812859e-05,165.58772849990055,166.66660070000216,[],[],[],[],[],[],,,,,,,,,818308,001,2025-02-03_07h59.07.197,Foreperiod_task,2024.2.4,89.99037099888842,2025-02-03 07h59.13.772298 -0800,
9,0,9,[0.128125],[0.31875],[1],[0],[0],[1.0323425999376923],[],[],[],[],[],[],,,,4,0,4,0,9,0,9,0,166.6768763998989,,,,,,,,,,,,166.66690140007995,166.6768763998989,0.00023140013217926025,166.6768763998989,166.8767389000859,167.16594219999388,167.16594219999388,167.16594219999388,167.17696040007286,167.70014260010794,0.5,task,0.5323425999376923,[0.128125],[0.31875],[1],[0],[0],[1.0323425999376923],167.7004116999451,167.7100897000637,0.00011359993368387222,168.01000320003368,169.28838569996879,[],[],[],[],[],[],,,,,,,,,818308,001,2025-02-03_07h59.07.197,Foreperiod_task,2024.2.4,89.99037099888842,2025-02-03 07h59.13.772298 -0800,
4,0,4,,,,,,,,,,,,,space,1.4795889998786151,None,4,0,4,0,,,,,,,,,,,,,,,,,,,,,,,,,,,,,,,,,,,,,,,,,,,,,,,169.2896600998938,169.29887890000828,169.29887890000828,170.7893809999805,space,1.4795889998786151,None,,818308,001,2025-02-03_07h59.07.197,Foreperiod_task,2024.2.4,89.99037099888842,2025-02-03 07h59.13.772298 -0800,
0,0,0,[0.128125],[0.31875],[1],[0],[0],[1.0982033000327647],[],[],[],[],[],[],,,,5,0,5,0,0,0,0,0,170.7986800998915,,,,,,,,,,,,170.78987809992395,170.7986800998915,0.00047369999811053276,170.7986800998915,170.99882089998573,171.2879989000503,171.2879989000503,171.2879989000503,171.29895219998434,171.88878670008853,0.5,task,0.5982033000327647,[0.128125],[0.31875],[1],[0],[0],[1.0982033000327647],171.88900680001825,171.89894989994355,0.00010160007514059544,172.19895630003884,173.27692990005016,[],[],[],[],[],[],,,,,,,,,818308,001,2025-02-03_07h59.07.197,Foreperiod_task,2024.2.4,89.99037099888842,2025-02-03 07h59.13.772298 -0800,
1,0,1,[0.128125],[0.31875],[1],[0],[0],[2.56676089996472],[],[],[],[],[],[],,,,5,0,5,0,1,0,1,0,173.28778070001863,,,,,,,,,,,,173.27712369989604,173.28778070001863,0.0001574999187141657,173.28778070001863,173.48768300004303,175.27682429994456,175.27682429994456,175.27682429994456,175.2880730999168,175.84442540002055,2,task,0.56676089996472,[0.128125],[0.31875],[1],[0],[0],[2.56676089996472],175.84455129993148,175.8544050999917,6.479979492723942e-05,176.15340099995956,177.50045170006342,[],[],[],[],[],[],,,,,,,,,818308,001,2025-02-03_07h59.07.197,Foreperiod_task,2024.2.4,89.99037099888842,2025-02-03 07h59.13.772298 -0800,
2,0,2,[0.128125],[0.31875],[1],[0],[0],[0.9888209998607635],[],[],[],[],[],[],,,,5,0,5,0,2,0,2,0,177.51010440010577,,,,,,,,,,,,177.50087799993344,177.51010440010577,0.0003299000672996044,177.51010440010577,177.71014730003662,177.99782510008663,177.99782510008663,177.99782510008663,178.00903229997493,178.490986000048,0.5,task,0.48882099986076355,[0.128125],[0.31875],[1],[0],[0],[0.9888209998607635],178.4913667999208,178.49781590001658,0.00017910008318722248,178.7990296999924,179.71136999991722,[],[],[],[],[],[],,,,,,,,,818308,001,2025-02-03_07h59.07.197,Foreperiod_task,2024.2.4,89.99037099888842,2025-02-03 07h59.13.772298 -0800,
3,0,3,[0.128125],[0.31875],[1],[0],[0],[2.410861600190401],[],[],[],[],[],[],,,,5,0,5,0,3,0,3,0,179.72123780008405,,,,,,,,,,,,179.711789800087,179.72123780008405,0.0003246001433581114,179.72123780008405,179.92128830007277,181.71025789994746,181.71025789994746,181.71025789994746,181.72138740005903,182.12388579989783,2,task,0.4108616001904011,[0.128125],[0.31875],[1],[0],[0],[2.410861600190401],182.12424880010076,182.13228800008073,0.00016769999638199806,182.43240029993467,183.77741610002704,[],[],[],[],[],[],,,,,,,,,818308,001,2025-02-03_07h59.07.197,Foreperiod_task,2024.2.4,89.99037099888842,2025-02-03 07h59.13.772298 -0800,
4,0,4,[0.128125],[0.31875],[1],[0],[0],[2.5107761998660862],[],[],[],[],[],[],,,,5,0,5,0,4,0,4,0,183.78774629998952,,,,,,,,,,,,183.77786840009503,183.78774629998952,0.00032299989834427834,183.78774629998952,183.98798849992454,185.77554649999365,185.77554649999365,185.77554649999365,185.7865865000058,186.28961610002443,2,task,0.5107761998660862,[0.128125],[0.31875],[1],[0],[0],[2.5107761998660862],186.28986830008216,186.29870179994032,0.00011959997937083244,186.59896879992448,187.95606389991008,[],[],[],[],[],[],,,,,,,,,818308,001,2025-02-03_07h59.07.197,Foreperiod_task,2024.2.4,89.99037099888842,2025-02-03 07h59.13.772298 -0800,
5,0,5,[0.128125],[0.31875],[1],[0],[0],[2.554473999887705],[],[],[],[],[],[],,,,5,0,5,0,5,0,5,0,187.9656615999993,,,,,,,,,,,,187.95653240010142,187.9656615999993,0.0003353999927639961,187.9656615999993,188.16560490010306,189.95456309989095,189.95456309989095,189.95456309989095,189.96560729993507,190.51229420001619,2,task,0.5544739998877048,[0.128125],[0.31875],[1],[0],[0],[2.554473999887705],190.51270739990287,190.52090099989437,0.00016700010746717453,190.8212760000024,191.76677230000496,[],[],[],[],[],[],,,,,,,,,818308,001,2025-02-03_07h59.07.197,Foreperiod_task,2024.2.4,89.99037099888842,2025-02-03 07h59.13.772298 -0800,
6,0,6,[0.128125],[0.31875],[1],[0],[0],[2.5092284998390824],[],[],[],[],[],[],,,,5,0,5,0,6,0,6,0,191.77668490004726,,,,,,,,,,,,191.7672139001079,191.77668490004726,0.0003472999669611454,191.77668490004726,191.97642270009965,193.76545669999905,193.76545669999905,193.76545669999905,193.77658910001628,194.2773203998804,2,task,0.5092284998390824,[0.128125],[0.31875],[1],[0],[0],[2.5092284998390824],194.27756360010244,194.28745279996656,0.00010959990322589874,194.58766800002195,195.66621849988587,[],[],[],[],[],[],,,,,,,,,818308,001,2025-02-03_07h59.07.197,Foreperiod_task,2024.2.4,89.99037099888842,2025-02-03 07h59.13.772298 -0800,
7,0,7,[0.128125],[0.31875],[1],[0],[0],[2.3776879999786615],[],[],[],[],[],[],,,,5,0,5,0,7,0,7,0,195.67624829988927,,,,,,,,,,,,195.66649030009285,195.67624829988927,0.00020960019901394844,195.67624829988927,195.87614449998364,197.66552929999307,197.66552929999307,197.66552929999307,197.67651830008253,198.0450947000645,2,task,0.37768799997866154,[0.128125],[0.31875],[1],[0],[0],[2.3776879999786615],198.04533779993653,198.05410859989934,0.00011279992759227753,198.35406200005673,199.59929609997198,[],[],[],[],[],[],,,,,,,,,818308,001,2025-02-03_07h59.07.197,Foreperiod_task,2024.2.4,89.99037099888842,2025-02-03 07h59.13.772298 -0800,
8,0,8,[0.128125],[0.31875],[1],[0],[0],[0.9999997999984771],[],[],[],[],[],[],,,,5,0,5,0,8,0,8,0,199.6095229999628,,,,,,,,,,,,199.59959289990366,199.6095229999628,0.0002360998187214136,199.6095229999628,199.80968720000237,200.0989218999166,200.0989218999166,200.0989218999166,200.10975309996866,200.60039709997363,0.5,task,0.4999997999984771,[0.128125],[0.31875],[1],[0],[0],[0.9999997999984771],200.60061990004033,200.60968029987998,0.0001246999017894268,200.90953049995005,201.93241730006412,[],[],[],[],[],[],,,,,,,,,818308,001,2025-02-03_07h59.07.197,Foreperiod_task,2024.2.4,89.99037099888842,2025-02-03 07h59.13.772298 -0800,
9,0,9,[0.128125],[0.31875],[1],[0],[0],[0.93329369998537],[],[],[],[],[],[],,,,5,0,5,0,9,0,9,0,201.9428042001091,,,,,,,,,,,,201.9327006000094,201.9428042001091,0.00021629990078508854,201.9428042001091,202.14302229997702,202.43229150003754,202.43229150003754,202.43229150003754,202.4431753999088,202.86660930002108,0.5,task,0.43329369998537004,[0.128125],[0.31875],[1],[0],[0],[0.93329369998537],202.8667377999518,202.87617109995335,5.819997750222683e-05,203.17636579996906,204.08816569996998,[],[],[],[],[],[],,,,,,,,,818308,001,2025-02-03_07h59.07.197,Foreperiod_task,2024.2.4,89.99037099888842,2025-02-03 07h59.13.772298 -0800,
5,0,5,,,,,,,,,,,,,space,0.8455666000954807,None,5,0,5,0,,,,,,,,,,,,,,,,,,,,,,,,,,,,,,,,,,,,,,,,,,,,,,,204.09082880010828,204.09849129989743,204.09849129989743,204.9556458001025,space,0.8455666000954807,None,,818308,001,2025-02-03_07h59.07.197,Foreperiod_task,2024.2.4,89.99037099888842,2025-02-03 07h59.13.772298 -0800,
0,0,0,[0.128125],[0.31875],[1],[0],[0],[2.443750499980524],[],[],[],[],[],[],,,,6,0,6,0,0,0,0,0,204.9650483999867,,,,,,,,,,,,204.95629639993422,204.9650483999867,0.000627199886366725,204.9650483999867,205.16520699998364,206.9540593000129,206.9540593000129,206.9540593000129,206.9653131000232,207.40081200003624,2,task,0.4437504999805242,[0.128125],[0.31875],[1],[0],[0],[2.443750499980524],207.40101239993237,207.40952609991655,9.190011769533157e-05,207.70952500007115,208.63257170002908,[],[],[],[],[],[],,,,,,,,,818308,001,2025-02-03_07h59.07.197,Foreperiod_task,2024.2.4,89.99037099888842,2025-02-03 07h59.13.772298 -0800,
1,0,1,[0.128125],[0.31875],[1],[0],[0],[2.477994500193745],[],[],[],[],[],[],,,,6,0,6,0,1,0,1,0,208.6428437998984,,,,,,,,,,,,208.6327460000757,208.6428437998984,0.00013320008292794228,208.6428437998984,208.84274880005978,210.6319657000713,210.6319657000713,210.6319657000713,210.64308579987846,211.11163719999604,2,task,0.4779945001937449,[0.128125],[0.31875],[1],[0],[0],[2.477994500193745],211.1118554000277,211.12044030008838,9.620003402233124e-05,211.4206638999749,212.35498709999956,[],[],[],[],[],[],,,,,,,,,818308,001,2025-02-03_07h59.07.197,Foreperiod_task,2024.2.4,89.99037099888842,2025-02-03 07h59.13.772298 -0800,
2,0,2,[0.128125],[0.31875],[1],[0],[0],[0.9107346998061985],[],[],[],[],[],[],,,,6,0,6,0,2,0,2,0,212.36511519993655,,,,,,,,,,,,212.35528260003775,212.36511519993655,0.0002343999221920967,212.36511519993655,212.5650315999519,212.8540076999925,212.8540076999925,212.8540076999925,212.86513999989256,213.26684290007688,0.5,task,0.4107346998061985,[0.128125],[0.31875],[1],[0],[0],[0.9107346998061985],213.26712860004045,213.27584100002423,0.00012070010416209698,213.5760971000418,214.81021740008146,[],[],[],[],[],[],,,,,,,,,818308,001,2025-02-03_07h59.07.197,Foreperiod_task,2024.2.4,89.99037099888842,2025-02-03 07h59.13.772298 -0800,
3,0,3,[0.128125],[0.31875],[1],[0],[0],[0.9324042999651283],[],[],[],[],[],[],,,,6,0,6,0,3,0,3,0,214.82061660010368,,,,,,,,,,,,214.81057409988716,214.82061660010368,0.00028609996661543846,214.82061660010368,215.0205826999154,215.3096862998791,215.3096862998791,215.3096862998791,215.32079800008796,215.74378530005924,0.5,task,0.4324042999651283,[0.128125],[0.31875],[1],[0],[0],[0.9324042999651283],215.74401869997382,215.7535741000902,0.00011030002497136593,216.05376549996436,217.27673400007188,[],[],[],[],[],[],,,,,,,,,818308,001,2025-02-03_07h59.07.197,Foreperiod_task,2024.2.4,89.99037099888842,2025-02-03 07h59.13.772298 -0800,
4,0,4,[0.128125],[0.31875],[1],[0],[0],[1.2776275998912752],[],[],[],[],[],[],,,,6,0,6,0,4,0,4,0,217.2871870000381,,,,,,,,,,,,217.27703809994273,217.2871870000381,0.0002484000287950039,217.2871870000381,217.4871946000494,217.77632070006803,217.77632070006803,217.77632070006803,217.78739439998753,218.55545319989324,0.5,task,0.7776275998912752,[0.128125],[0.31875],[1],[0],[0],[1.2776275998912752],218.55565909994766,218.564917499898,9.429990313947201e-05,218.8647869999986,220.1434472000692,[],[],[],[],[],[],,,,,,,,,818308,001,2025-02-03_07h59.07.197,Foreperiod_task,2024.2.4,89.99037099888842,2025-02-03 07h59.13.772298 -0800,
5,0,5,[0.128125],[0.31875],[1],[0],[0],[0.8661338000092655],[],[],[],[],[],[],,,,6,0,6,0,5,0,5,0,220.15387089992873,,,,,,,,,,,,220.14374609990045,220.15387089992873,0.0002342001534998417,220.15387089992873,220.3535847000312,220.64283640007488,220.64283640007488,220.64283640007488,220.65398630010895,221.0105936001055,0.5,task,0.36613380000926554,[0.128125],[0.31875],[1],[0],[0],[0.8661338000092655],221.01076880004257,221.02033729990944,7.870001718401909e-05,221.32051129988395,222.35486690001562,[],[],[],[],[],[],,,,,,,,,818308,001,2025-02-03_07h59.07.197,Foreperiod_task,2024.2.4,89.99037099888842,2025-02-03 07h59.13.772298 -0800,
6,0,6,[0.128125],[0.31875],[1],[0],[0],[0.9876818999182433],[],[],[],[],[],[],,,,6,0,6,0,6,0,6,0,222.364810799947,,,,,,,,,,,,222.3551813000813,222.364810799947,0.0002373000606894493,222.364810799947,222.56500290008262,,,,,223.34383270004764,2,task,-1.0123181000817567,[0.128125],[0.31875],[1],[0],[0],[0.9876818999182433],223.34408359997906,223.3538764999248,0.00011560018174350262,223.65386010007933,224.8987922000233,[],[],[],[],[],[],,,,,,,,223.3538764999248,818308,001,2025-02-03_07h59.07.197,Foreperiod_task,2024.2.4,89.99037099888842,2025-02-03 07h59.13.772298 -0800,
7,0,7,[0.128125],[0.31875],[1],[0],[0],[0.9554665999021381],[],[],[],[],[],[],,,,6,0,6,0,7,0,7,0,224.9091890999116,,,,,,,,,,,,224.89904899988323,224.9091890999116,0.00019740010611712933,224.9091890999116,225.10915339994244,225.3982937000692,225.3982937000692,225.3982937000692,225.40939390007406,225.8551465999335,0.5,task,0.4554665999021381,[0.128125],[0.31875],[1],[0],[0],[0.9554665999021381],225.8552808999084,225.86482780007645,6.0900114476680756e-05,226.16488229995593,227.08757380000316,[],[],[],[],[],[],,,,,,,,,818308,001,2025-02-03_07h59.07.197,Foreperiod_task,2024.2.4,89.99037099888842,2025-02-03 07h59.13.772298 -0800,
8,0,8,[0.128125],[0.31875],[1],[0],[0],[0.9774789002258331],[],[],[],[],[],[],,,,6,0,6,0,8,0,8,0,227.0980948000215,,,,,,,,,,,,227.08780839992687,227.0980948000215,0.00018439977429807186,227.0980948000215,227.29813449992798,227.58716259989887,227.58716259989887,227.58716259989887,227.59844539989717,228.0660240999423,0.5,task,0.47747890022583306,[0.128125],[0.31875],[1],[0],[0],[0.9774789002258331],228.06625559995882,228.07587369997054,0.0001088001299649477,228.37575950007886,229.70954849990085,[],[],[],[],[],[],,,,,,,,,818308,001,2025-02-03_07h59.07.197,Foreperiod_task,2024.2.4,89.99037099888842,2025-02-03 07h59.13.772298 -0800,
9,0,9,[0.128125],[0.31875],[1],[0],[0],[2.5671976001467556],[],[],[],[],[],[],,,,6,0,6,0,9,0,9,0,229.72012139996514,,,,,,,,,,,,229.7098391999025,229.72012139996514,0.00023779994808137417,229.72012139996514,229.9202767999377,231.7093597999774,231.7093597999774,231.7093597999774,231.72060750005767,232.2778686999809,2,task,0.5671976001467556,[0.128125],[0.31875],[1],[0],[0],[2.5671976001467556],232.2781092999503,232.28700829995796,0.00014279992319643497,232.58712729997933,233.6319520000834,[],[],[],[],[],[],,,,,,,,,818308,001,2025-02-03_07h59.07.197,Foreperiod_task,2024.2.4,89.99037099888842,2025-02-03 07h59.13.772298 -0800,
6,0,6,,,,,,,,,,,,,space,1.6917417999356985,None,6,0,6,0,,,,,,,,,,,,,,,,,,,,,,,,,,,,,,,,,,,,,,,,,,,,,,,233.63511819997802,233.6425216998905,233.6425216998905,235.3440902000293,space,1.6917417999356985,None,,818308,001,2025-02-03_07h59.07.197,Foreperiod_task,2024.2.4,89.99037099888842,2025-02-03 07h59.13.772298 -0800,
0,0,0,[0.128125],[0.31875],[1],[0],[0],[2.4889076000545174],[],[],[],[],[],[],,,,7,0,7,0,0,0,0,0,235.35346479993314,,,,,,,,,,,,235.34471550001763,235.35346479993314,0.0006019000429660082,235.35346479993314,235.5535053999629,237.3425755999051,237.3425755999051,237.3425755999051,237.35374929988757,237.83414880000055,2,task,0.4889076000545174,[0.128125],[0.31875],[1],[0],[0],[2.4889076000545174],237.8342959000729,237.84226449998096,6.3000014051795e-05,238.1424338000361,239.0434191999957,[],[],[],[],[],[],,,,,,,,,818308,001,2025-02-03_07h59.07.197,Foreperiod_task,2024.2.4,89.99037099888842,2025-02-03 07h59.13.772298 -0800,
1,0,1,[0.128125],[0.31875],[1],[0],[0],[2.5334413000382483],[],[],[],[],[],[],,,,7,0,7,0,1,0,1,0,239.05360110010952,,,,,,,,,,,,239.04374659992754,239.05360110010952,0.0002592001110315323,239.05360110010952,239.25352080003358,241.0426554000005,241.0426554000005,241.0426554000005,241.05374139989726,241.5780764000956,2,task,0.5334413000382483,[0.128125],[0.31875],[1],[0],[0],[2.5334413000382483],241.57832610001788,241.5867775999941,0.000120899872854352,241.88678360008635,242.8546921000816,[],[],[],[],[],[],,,,,,,,,818308,001,2025-02-03_07h59.07.197,Foreperiod_task,2024.2.4,89.99037099888842,2025-02-03 07h59.13.772298 -0800,
2,0,2,[0.128125],[0.31875],[1],[0],[0],[2.3772712000645697],[],[],[],[],[],[],,,,7,0,7,0,2,0,2,0,242.86461249995045,,,,,,,,,,,,242.85495609999634,242.86461249995045,0.00021219998598098755,242.86461249995045,243.06452020001598,244.85367299988866,244.85367299988866,244.85367299988866,244.8649343000725,245.23308870010078,2,task,0.3772712000645697,[0.128125],[0.31875],[1],[0],[0],[2.3772712000645697],245.23329639993608,245.24208420002833,9.769992902874947e-05,245.54233289998956,246.70996019989252,[],[],[],[],[],[],,,,,,,,,818308,001,2025-02-03_07h59.07.197,Foreperiod_task,2024.2.4,89.99037099888842,2025-02-03 07h59.13.772298 -0800,
3,0,3,[0.128125],[0.31875],[1],[0],[0],[1.123190099839121],[],[],[],[],[],[],,,,7,0,7,0,3,0,3,0,246.72014730004594,,,,,,,,,,,,246.7102739000693,246.72014730004594,0.0002437999937683344,246.72014730004594,246.9200476000551,247.2091769000981,247.2091769000981,247.2091769000981,247.22042719996534,247.8341902999673,0.5,task,0.6231900998391211,[0.128125],[0.31875],[1],[0],[0],[1.123190099839121],247.83438939996995,247.8422727000434,9.58999153226614e-05,248.14210810000077,249.48725140001625,[],[],[],[],[],[],,,,,,,,,818308,001,2025-02-03_07h59.07.197,Foreperiod_task,2024.2.4,89.99037099888842,2025-02-03 07h59.13.772298 -0800,
4,0,4,[0.128125],[0.31875],[1],[0],[0],[0.8779662998858839],[],[],[],[],[],[],,,,7,0,7,0,4,0,4,0,249.4977812001016,,,,,,,,,,,,249.4874734999612,249.4977812001016,0.00016729999333620071,249.4977812001016,249.6977844000794,249.98700170009397,249.98700170009397,249.98700170009397,249.99794399994425,250.36614890000783,0.5,task,0.3779662998858839,[0.128125],[0.31875],[1],[0],[0],[0.8779662998858839],250.36636619991623,250.37552560004406,0.00011339993216097355,250.6756329999771,251.57662190007977,[],[],[],[],[],[],,,,,,,,,818308,001,2025-02-03_07h59.07.197,Foreperiod_task,2024.2.4,89.99037099888842,2025-02-03 07h59.13.772298 -0800,
5,0,5,[0.128125],[0.31875],[1],[0],[0],[2.377844600006938],[],[],[],[],[],[],,,,7,0,7,0,5,0,5,0,251.586760800099,,,,,,,,,,,,251.5769909999799,251.586760800099,0.000282099936157465,251.586760800099,251.7867548998911,253.57551019988023,253.57551019988023,253.57551019988023,253.5867542999331,253.95573990000412,2,task,0.377844600006938,[0.128125],[0.31875],[1],[0],[0],[2.377844600006938],253.9559472000692,253.96443070005625,9.539979510009289e-05,254.26426429999992,255.56511579989456,[],[],[],[],[],[],,,,,,,,,818308,001,2025-02-03_07h59.07.197,Foreperiod_task,2024.2.4,89.99037099888842,2025-02-03 07h59.13.772298 -0800,
6,0,6,[0.128125],[0.31875],[1],[0],[0],[1.8336714999750257],[],[],[],[],[],[],,,,7,0,7,0,6,0,6,0,255.57558840001002,,,,,,,,,,,,255.5652685998939,255.57558840001002,0.00011859997175633907,255.57558840001002,255.77548409998417,256.986849399982,256.986849399982,256.986849399982,256.9979971998837,257.3996470000129,1.4171660440296012,task,0.41650545594542443,[0.128125],[0.31875],[1],[0],[0],[1.8336714999750257],257.39987399987876,257.40874550002627,0.00010460009798407555,257.708685599966,258.94311339990236,[],[],[],[],[],[],,,,,,,,,818308,001,2025-02-03_07h59.07.197,Foreperiod_task,2024.2.4,89.99037099888842,2025-02-03 07h59.13.772298 -0800,
7,0,7,[0.128125],[0.31875],[1],[0],[0],[1.4767727998550981],[],[],[],[],[],[],,,,7,0,7,0,7,0,7,0,258.95355329988524,,,,,,,,,,,,258.94343400001526,258.95355329988524,0.00024489988572895527,258.95355329988524,259.1533043999225,259.9647025000304,259.9647025000304,259.9647025000304,259.9756920998916,260.42080239998177,1.026985622190129,task,0.4497871776649691,[0.128125],[0.31875],[1],[0],[0],[1.4767727998550981],260.42098219995387,260.4308350998908,9.159999899566174e-05,260.73100830009207,261.86451780004427,[],[],[],[],[],[],,,,,,,,,818308,001,2025-02-03_07h59.07.197,Foreperiod_task,2024.2.4,89.99037099888842,2025-02-03 07h59.13.772298 -0800,
8,0,8,[0.128125],[0.31875],[1],[0],[0],[0.9457664000801742],[],[],[],[],[],[],,,,7,0,7,0,8,0,8,0,261.875287800096,,,,,,,,,,,,261.86464229994453,261.875287800096,9.66999214142561e-05,261.875287800096,262.0754450999666,262.3646088000387,262.3646088000387,262.3646088000387,262.3754751998931,262.8111674000975,0.5,task,0.4457664000801742,[0.128125],[0.31875],[1],[0],[0],[0.9457664000801742],262.81143289990723,262.8198547998909,0.00010819989256560802,263.11993429996073,264.17627430008724,[],[],[],[],[],[],,,,,,,,,818308,001,2025-02-03_07h59.07.197,Foreperiod_task,2024.2.4,89.99037099888842,2025-02-03 07h59.13.772298 -0800,
9,0,9,[0.128125],[0.31875],[1],[0],[0],[1.0005842000246048],[],[],[],[],[],[],,,,7,0,7,0,9,0,9,0,264.1865630999673,,,,,,,,,,,,264.17666779994033,264.1865630999673,0.00026679993607103825,264.1865630999673,264.3866655998863,264.6754360999912,264.6754360999912,264.6754360999912,264.686787399929,265.17787660006434,0.5,task,0.5005842000246048,[0.128125],[0.31875],[1],[0],[0],[1.0005842000246048],265.17807370005175,265.1864511000458,9.099999442696571e-05,265.4863728999626,266.654185899999,[],[],[],[],[],[],,,,,,,,,818308,001,2025-02-03_07h59.07.197,Foreperiod_task,2024.2.4,89.99037099888842,2025-02-03 07h59.13.772298 -0800,
7,0,7,,,,,,,,,,,,,space,1.0826957998797297,None,7,0,7,0,,,,,,,,,,,,,,,,,,,,,,,,,,,,,,,,,,,,,,,,,,,,,,,266.65723560005426,266.6640786998905,266.6640786998905,267.75464739999734,space,1.0826957998797297,None,,818308,001,2025-02-03_07h59.07.197,Foreperiod_task,2024.2.4,89.99037099888842,2025-02-03 07h59.13.772298 -0800,
