thisN,thisTrialN,thisRepN,mouse.x,mouse.y,mouse.leftButton,mouse.midButton,mouse.rightButton,mouse.time,Intertrial_Mouse.x,Intertrial_Mouse.y,Intertrial_Mouse.leftButton,Intertrial_Mouse.midButton,Intertrial_Mouse.rightButton,Intertrial_Mouse.time,key_resp_5.keys,key_resp_5.rt,key_resp_5.duration,trials_3.thisRepN,trials_3.thisTrialN,trials_3.thisN,trials_3.thisIndex,trials_2.thisRepN,trials_2.thisTrialN,trials_2.thisN,trials_2.thisIndex,thisRow.t,notes,Welcome_Screen.started,Welcome_Text.started,mouse_2.started,Welcome_Screen.stopped,mouse_2.x,mouse_2.y,mouse_2.leftButton,mouse_2.midButton,mouse_2.rightButton,mouse_2.time,Trial_2.started,PLUS_FP.started,mouse.started,Photodiode_plus.started,Photodiode_plus.stopped,PLUS_FP.stopped,polygon.started,Photodiode_polygon.started,Photodiode_polygon.stopped,Trial_2.stopped,FixDur,Type,RT,trials_2.mouse.x,trials_2.mouse.y,trials_2.mouse.leftButton,trials_2.mouse.midButton,trials_2.mouse.rightButton,trials_2.mouse.time,Intertrial_Period.started,Photodiode_2.started,Intertrial_Mouse.started,Photodiode_2.stopped,Intertrial_Period.stopped,trials_2.Intertrial_Mouse.x,trials_2.Intertrial_Mouse.y,trials_2.Intertrial_Mouse.leftButton,trials_2.Intertrial_Mouse.midButton,trials_2.Intertrial_Mouse.rightButton,trials_2.Intertrial_Mouse.time,BREAK.started,key_resp_5.started,text_3.started,BREAK.stopped,trials_3.key_resp_5.keys,trials_3.key_resp_5.rt,trials_3.key_resp_5.duration,text.started,text.stopped,participant,session,date,expName,psychopyVersion,frameRate,expStart,
,,,,,,,,,,,,,,,,,,,,,,,,,,,,0.002611699979752302,0.007072600070387125,0.002338800113648176,3.502113100141287,[-0.3525],[0.095625],[1],[0],[0],[3.498579500010237],,,,,,,,,,,,,,,,,,,,,,,,,,,,,,,,,,,,,,,,819959,001,2025-02-03_07h53.57.787,Foreperiod_task,2024.2.4,89.94747050760718,2025-02-03 07h54.05.421516 -0800,
0,0,0,[-0.3525],[0.095625],[1],[0],[0],[2.4070642001461238],[],[],[],[],[],[],,,,0,0,0,0,0,0,0,0,3.511941900011152,,,,,,,,,,,,3.505321300122887,3.511941900011152,0.0030816998332738876,3.511941900011152,3.7119366000406444,5.500904600135982,5.500904600135982,5.500904600135982,5.512006900040433,5.9128876000177115,2,task,0.40706420014612377,[-0.3525],[0.095625],[1],[0],[0],[2.4070642001461238],5.913008600007743,5.922913300106302,5.469983443617821e-05,6.222836700035259,7.478809399995953,[],[],[],[],[],[],,,,,,,,,,819959,001,2025-02-03_07h53.57.787,Foreperiod_task,2024.2.4,89.94747050760718,2025-02-03 07h54.05.421516 -0800,
1,0,1,[-0.3525],[0.095625],[1],[0],[0],[2.400529900100082],[],[],[],[],[],[],,,,0,0,0,0,1,0,1,0,7.489683800144121,,,,,,,,,,,,7.478973600082099,7.489683800144121,0.00012330012395977974,7.489683800144121,7.689627500018105,9.478697699960321,9.478697699960321,9.478697699960321,9.489793800050393,9.880298200063407,2,task,0.40052990010008216,[-0.3525],[0.095625],[1],[0],[0],[2.400529900100082],9.88049040012993,9.889605900039896,8.670007809996605e-05,10.189758599968627,11.079427800141275,[],[],[],[],[],[],,,,,,,,,,819959,001,2025-02-03_07h53.57.787,Foreperiod_task,2024.2.4,89.94747050760718,2025-02-03 07h54.05.421516 -0800,
2,0,2,[-0.3525],[0.095625],[1],[0],[0],[2.389128000009805],[],[],[],[],[],[],,,,0,0,0,0,2,0,2,0,11.089399900054559,,,,,,,,,,,,11.079695800086483,11.089399900054559,0.00020210002548992634,11.089399900054559,11.289423400070518,13.078703599981964,13.078703599981964,13.078703599981964,13.08980379998684,13.469721399946138,2,task,0.38912800000980496,[-0.3525],[0.095625],[1],[0],[0],[2.389128000009805],13.46992400009185,13.478437500074506,0.00011010002344846725,13.778391500003636,14.734798500081524,[],[],[],[],[],[],,,,,,,,,,819959,001,2025-02-03_07h53.57.787,Foreperiod_task,2024.2.4,89.94747050760718,2025-02-03 07h54.05.421516 -0800,
3,0,3,[-0.3525],[0.095625],[1],[0],[0],[2.3781483999919146],[],[],[],[],[],[],,,,0,0,0,0,3,0,3,0,14.745142200030386,,,,,,,,,,,,14.735100700054318,14.745142200030386,0.0002093999646604061,14.745142200030386,14.94513380015269,16.73414189997129,16.73414189997129,16.73414189997129,16.74533629999496,17.114233300089836,2,task,0.37814839999191463,[-0.3525],[0.095625],[1],[0],[0],[2.3781483999919146],17.114449700107798,17.12272660015151,9.499979205429554e-05,17.42274870001711,18.623477699933574,[],[],[],[],[],[],,,,,,,,,,819959,001,2025-02-03_07h53.57.787,Foreperiod_task,2024.2.4,89.94747050760718,2025-02-03 07h54.05.421516 -0800,
4,0,4,[-0.3525],[0.095625],[1],[0],[0],[2.4105461998842657],[],[],[],[],[],[],,,,0,0,0,0,4,0,4,0,18.633954300079495,,,,,,,,,,,,18.623830700060353,18.633954300079495,0.00027270009741187096,18.633954300079495,18.83382900012657,20.623045300133526,20.623045300133526,20.623045300133526,20.634272099938244,21.035333400126547,2,task,0.41054619988426566,[-0.3525],[0.095625],[1],[0],[0],[2.4105461998842657],21.035600800067186,21.045026700012386,0.00012400001287460327,21.345109000103548,22.25737649993971,[],[],[],[],[],[],,,,,,,,,,819959,001,2025-02-03_07h53.57.787,Foreperiod_task,2024.2.4,89.94747050760718,2025-02-03 07h54.05.421516 -0800,
5,0,5,[-0.3525],[0.095625],[1],[0],[0],[2.3874062998220325],[],[],[],[],[],[],,,,0,0,0,0,5,0,5,0,22.26727920002304,,,,,,,,,,,,22.257686600089073,22.26727920002304,0.0002326001413166523,22.26727920002304,22.46733479993418,24.256334400037304,24.256334400037304,24.256334400037304,24.267423399956897,24.645794000010937,2,task,0.38740629982203245,[-0.3525],[0.095625],[1],[0],[0],[2.3874062998220325],24.645985800074413,24.656030300073326,8.909986354410648e-05,24.95604269998148,26.068081400124356,[],[],[],[],[],[],,,,,,,,,,819959,001,2025-02-03_07h53.57.787,Foreperiod_task,2024.2.4,89.94747050760718,2025-02-03 07h54.05.421516 -0800,
6,0,6,[-0.3525],[0.095625],[1],[0],[0],[2.3885841998271644],[],[],[],[],[],[],,,,0,0,0,0,6,0,6,0,26.078316800063476,,,,,,,,,,,,26.068430100101978,26.078316800063476,0.0002802000381052494,26.078316800063476,26.27832920011133,28.067325900075957,28.067325900075957,28.067325900075957,28.07857200014405,28.45791590004228,2,task,0.3885841998271644,[-0.3525],[0.095625],[1],[0],[0],[2.3885841998271644],28.45815289998427,28.46697870013304,0.00011179991997778416,28.767166400095448,30.023531900020316,[],[],[],[],[],[],,,,,,,,,,819959,001,2025-02-03_07h53.57.787,Foreperiod_task,2024.2.4,89.94747050760718,2025-02-03 07h54.05.421516 -0800,
7,0,7,[-0.3525],[0.095625],[1],[0],[0],[2.332954900106415],[],[],[],[],[],[],,,,0,0,0,0,7,0,7,0,30.033948099939153,,,,,,,,,,,,30.02387719997205,30.033948099939153,0.00024159997701644897,30.033948099939153,30.233936000149697,32.02164119994268,32.02164119994268,32.02164119994268,32.03288329998031,32.35770809999667,2,task,0.33295490010641515,[-0.3525],[0.095625],[1],[0],[0],[2.332954900106415],32.35799980000593,32.36707299994305,0.00012280000373721123,32.66712290002033,33.64597890013829,[],[],[],[],[],[],,,,,,,,,,819959,001,2025-02-03_07h53.57.787,Foreperiod_task,2024.2.4,89.94747050760718,2025-02-03 07h54.05.421516 -0800,
8,0,8,[-0.3525],[0.095625],[1],[0],[0],[1.7993244000244886],[],[],[],[],[],[],,,,0,0,0,0,8,0,8,0,33.65593479992822,,,,,,,,,,,,33.64634390012361,33.65593479992822,0.00025489996187388897,33.65593479992822,33.855768100125715,35.056250400142744,35.056250400142744,35.056250400142744,35.06716220011003,35.44645310007036,1.4063408206596413,task,0.3929835793648473,[-0.3525],[0.095625],[1],[0],[0],[1.7993244000244886],35.446650499943644,35.45591669995338,8.839997462928295e-05,35.7558206000831,37.045661699958146,[],[],[],[],[],[],,,,,,,,,,819959,001,2025-02-03_07h53.57.787,Foreperiod_task,2024.2.4,89.94747050760718,2025-02-03 07h54.05.421516 -0800,
9,0,9,[-0.3525],[0.095625],[1],[0],[0],[0.9769156000111252],[],[],[],[],[],[],,,,0,0,0,0,9,0,9,0,37.05584489996545,,,,,,,,,,,,37.04601339995861,37.05584489996545,0.00031320005655288696,37.05584489996545,37.25583370006643,37.545103000011295,37.545103000011295,37.545103000011295,37.556118099950254,38.0239079000894,0.5,task,0.4769156000111252,[-0.3525],[0.095625],[1],[0],[0],[0.9769156000111252],38.024158500134945,38.033794099930674,0.00010879989713430405,38.33366150013171,39.31222610012628,[],[],[],[],[],[],,,,,,,,,,819959,001,2025-02-03_07h53.57.787,Foreperiod_task,2024.2.4,89.94747050760718,2025-02-03 07h54.05.421516 -0800,
0,0,0,,,,,,,,,,,,,space,1.7826555999927223,None,0,0,0,0,,,,,,,,,,,,,,,,,,,,,,,,,,,,,,,,,,,,,,,,,,,,,,,39.31675180001184,39.376460999948904,39.376460999948904,41.16866700001992,space,1.7826555999927223,None,,,819959,001,2025-02-03_07h53.57.787,Foreperiod_task,2024.2.4,89.94747050760718,2025-02-03 07h54.05.421516 -0800,
0,0,0,[-0.3525],[0.095625],[1],[0],[0],[1.2216809000819921],[],[],[],[],[],[],,,,1,0,1,0,0,0,0,0,41.17800520011224,,,,,,,,,,,,41.169199800118804,41.17800520011224,0.0005068001337349415,41.17800520011224,41.3781799999997,41.66721699992195,41.66721699992195,41.66721699992195,41.67820890014991,42.39174380013719,0.5,task,0.7216809000819921,[-0.3525],[0.095625],[1],[0],[0],[1.2216809000819921],42.391958200139925,42.40017449995503,9.760004468262196e-05,42.700155599974096,43.92224820004776,[],[],[],[],[],[],,,,,,,,,,819959,001,2025-02-03_07h53.57.787,Foreperiod_task,2024.2.4,89.94747050760718,2025-02-03 07h54.05.421516 -0800,
1,0,1,[-0.3525],[0.095625],[1],[0],[0],[0.94535499997437],[],[],[],[],[],[],,,,1,0,1,0,1,0,1,0,43.93246980011463,,,,,,,,,,,,43.922566200140864,43.93246980011463,0.00024179997853934765,43.93246980011463,44.13351540011354,44.42274129996076,44.42274129996076,44.42274129996076,44.43385050003417,44.8690095001366,0.5,task,0.44535499997437,[-0.3525],[0.095625],[1],[0],[0],[0.94535499997437],44.86927060014568,44.878038899973035,0.00012740003876388073,45.17808570014313,46.5457250000909,[],[],[],[],[],[],,,,,,,,,,819959,001,2025-02-03_07h53.57.787,Foreperiod_task,2024.2.4,89.94747050760718,2025-02-03 07h54.05.421516 -0800,
2,0,2,[-0.3525],[0.095625],[1],[0],[0],[2.199420099845156],[],[],[],[],[],[],,,,1,0,1,0,2,0,2,0,46.55586210009642,,,,,,,,,,,,46.54602360003628,46.55586210009642,0.000219699926674366,46.55586210009642,46.75569560006261,48.54455480002798,48.54455480002798,48.54455480002798,48.555738100083545,48.746048300061375,2,task,0.19942009984515607,[-0.3525],[0.095625],[1],[0],[0],[2.199420099845156],48.746228999923915,48.755475900135934,7.349997758865356e-05,49.05573879997246,49.97849850007333,[],[],[],[],[],[],,,,,,,,,,819959,001,2025-02-03_07h53.57.787,Foreperiod_task,2024.2.4,89.94747050760718,2025-02-03 07h54.05.421516 -0800,
3,0,3,[-0.3525],[0.095625],[1],[0],[0],[1.7999607000965625],[],[],[],[],[],[],,,,1,0,1,0,3,0,3,0,49.9889351001475,,,,,,,,,,,,49.97876959992573,49.9889351001475,0.00023150001652538776,49.9889351001475,50.18912520003505,51.27800610009581,51.27800610009581,51.27800610009581,51.28919839998707,51.77955799992196,1.2996431671545499,task,0.5003175329420126,[-0.3525],[0.095625],[1],[0],[0],[1.7999607000965625],51.779739200137556,51.788811299949884,8.319993503391743e-05,52.089052400086075,53.34566939994693,[],[],[],[],[],[],,,,,,,,,,819959,001,2025-02-03_07h53.57.787,Foreperiod_task,2024.2.4,89.94747050760718,2025-02-03 07h54.05.421516 -0800,
4,0,4,[-0.3525],[0.095625],[1],[0],[0],[1.121989900013432],[],[],[],[],[],[],,,,1,0,1,0,4,0,4,0,53.35586010012776,,,,,,,,,,,,53.34600790007971,53.35586010012776,0.0002609000075608492,53.35586010012776,53.555745700141415,53.844961000140756,53.844961000140756,53.844961000140756,53.85589160001837,54.46866869996302,0.5,task,0.6219899000134319,[-0.3525],[0.095625],[1],[0],[0],[1.121989900013432],54.46883919998072,54.477855599951,7.440010085701942e-05,54.778041400015354,55.933117900043726,[],[],[],[],[],[],,,,,,,,,,819959,001,2025-02-03_07h53.57.787,Foreperiod_task,2024.2.4,89.94747050760718,2025-02-03 07h54.05.421516 -0800,
5,0,5,[-0.3525],[0.095625],[1],[0],[0],[1.167675499804318],[],[],[],[],[],[],,,,1,0,1,0,5,0,5,0,55.943315600045025,,,,,,,,,,,,55.9334525000304,55.943315600045025,0.00025129993446171284,55.943315600045025,56.144425600068644,56.43347749998793,56.43347749998793,56.43347749998793,56.44484170014039,57.10214590001851,0.5,task,0.667675499804318,[-0.3525],[0.095625],[1],[0],[0],[1.167675499804318],57.102367900079116,57.11105900001712,9.549991227686405e-05,57.411243699956685,58.789921700023115,[],[],[],[],[],[],,,,,,,,,,819959,001,2025-02-03_07h53.57.787,Foreperiod_task,2024.2.4,89.94747050760718,2025-02-03 07h54.05.421516 -0800,
6,0,6,[-0.3525],[0.095625],[1],[0],[0],[0.8552522000391036],[],[],[],[],[],[],,,,1,0,1,0,6,0,6,0,58.799844400025904,,,,,,,,,,,,58.790242600021884,58.799844400025904,0.00024159997701644897,58.799844400025904,59.00011339993216,59.28917789994739,59.28917789994739,59.28917789994739,59.30026370007545,59.64653309993446,0.5,task,0.3552522000391036,[-0.3525],[0.095625],[1],[0],[0],[0.8552522000391036],59.64688499993645,59.65554290008731,0.00024099997244775295,59.95450620003976,61.06718960008584,[],[],[],[],[],[],,,,,,,,,,819959,001,2025-02-03_07h53.57.787,Foreperiod_task,2024.2.4,89.94747050760718,2025-02-03 07h54.05.421516 -0800,
7,0,7,[-0.3525],[0.095625],[1],[0],[0],[3.4673199001699686],[],[],[],[],[],[],,,,1,0,1,0,7,0,7,0,61.07774370000698,,,,,,,,,,,,61.06732250005007,61.07774370000698,9.949994273483753e-05,61.07774370000698,61.27787770004943,63.06690030009486,63.06690030009486,63.06690030009486,63.07795840012841,64.53557710000314,2,task,1.4673199001699686,[-0.3525],[0.095625],[1],[0],[0],[3.4673199001699686],64.53584869997576,64.54434100002982,0.00012560002505779266,64.84434320009314,66.16690890002064,[],[],[],[],[],[],,,,,,,,,,819959,001,2025-02-03_07h53.57.787,Foreperiod_task,2024.2.4,89.94747050760718,2025-02-03 07h54.05.421516 -0800,
8,0,8,[-0.3525],[0.095625],[1],[0],[0],[2.567142999963835],[],[],[],[],[],[],,,,1,0,1,0,8,0,8,0,66.17772409995086,,,,,,,,,,,,66.16713820002042,66.17772409995086,0.0001705000177025795,66.17772409995086,66.37778540002182,68.16672970005311,68.16672970005311,68.16672970005311,68.1779295001179,68.73516519996338,2,task,0.5671429999638349,[-0.3525],[0.095625],[1],[0],[0],[2.567142999963835],68.73540830006823,68.74434889992699,0.00010950001887977123,69.04438790003769,70.156318299938,[],[],[],[],[],[],,,,,,,,,,819959,001,2025-02-03_07h53.57.787,Foreperiod_task,2024.2.4,89.94747050760718,2025-02-03 07h54.05.421516 -0800,
9,0,9,[-0.3525],[0.095625],[1],[0],[0],[1.3883566001895815],[],[],[],[],[],[],,,,1,0,1,0,9,0,9,0,70.16653329995461,,,,,,,,,,,,70.15663530002348,70.16653329995461,0.0002546000760048628,70.16653329995461,70.36627210001461,70.6556824001018,70.6556824001018,70.6556824001018,70.66671720007434,71.54568110010587,0.5,task,0.8883566001895815,[-0.3525],[0.095625],[1],[0],[0],[1.3883566001895815],71.54581709997728,71.55536009999923,7.25998543202877e-05,71.85523350001313,72.85635920008644,[],[],[],[],[],[],,,,,,,,,,819959,001,2025-02-03_07h53.57.787,Foreperiod_task,2024.2.4,89.94747050760718,2025-02-03 07h54.05.421516 -0800,
1,0,1,,,,,,,,,,,,,space,1.2611079001799226,None,1,0,1,0,,,,,,,,,,,,,,,,,,,,,,,,,,,,,,,,,,,,,,,,,,,,,,,72.85917049995624,72.86650050012395,72.86650050012395,74.13416270003654,space,1.2611079001799226,None,,,819959,001,2025-02-03_07h53.57.787,Foreperiod_task,2024.2.4,89.94747050760718,2025-02-03 07h54.05.421516 -0800,
0,0,0,[-0.3525],[0.095625],[1],[0],[0],[2.3770552000496536],[],[],[],[],[],[],,,,2,0,2,0,0,0,0,0,74.14398470008746,,,,,,,,,,,,74.13453230005689,74.14398470008746,0.00034479983150959015,74.14398470008746,74.3443442999851,76.13322370010428,76.13322370010428,76.13322370010428,76.1441834999714,76.51229820004664,2,task,0.37705520004965365,[-0.3525],[0.095625],[1],[0],[0],[2.3770552000496536],76.51253190007992,76.52178080007434,9.949994273483753e-05,76.82179630012251,77.82246190006845,[],[],[],[],[],[],,,,,,,,,,819959,001,2025-02-03_07h53.57.787,Foreperiod_task,2024.2.4,89.94747050760718,2025-02-03 07h54.05.421516 -0800,
1,0,1,[-0.3525],[0.095625],[1],[0],[0],[2.388741899980232],[],[],[],[],[],[],,,,2,0,2,0,1,0,1,0,77.83281100005843,,,,,,,,,,,,77.82277130009606,77.83281100005843,0.0002476999070495367,77.83281100005843,78.03292570007034,79.82192640006542,79.82192640006542,79.82192640006542,79.8330644001253,80.21223459998146,2,task,0.3887418999802321,[-0.3525],[0.095625],[1],[0],[0],[2.388741899980232],80.2125063999556,80.2215585000813,0.00013599987141788006,80.52187449997291,81.88875819998793,[],[],[],[],[],[],,,,,,,,,,819959,001,2025-02-03_07h53.57.787,Foreperiod_task,2024.2.4,89.94747050760718,2025-02-03 07h54.05.421516 -0800,
2,0,2,[-0.3525],[0.095625],[1],[0],[0],[1.011116199893877],[],[],[],[],[],[],,,,2,0,2,0,2,0,2,0,81.8997279999312,,,,,,,,,,,,81.88890430005267,81.8997279999312,0.00011079991236329079,81.8997279999312,82.09963880013674,82.38864580006339,82.38864580006339,82.38864580006339,82.39976290008053,82.90056540002115,0.5,task,0.5111161998938769,[-0.3525],[0.095625],[1],[0],[0],[1.011116199893877],82.90069229993969,82.91052850009874,5.4200179874897e-05,83.21070230007172,84.44454810000025,[],[],[],[],[],[],,,,,,,,,,819959,001,2025-02-03_07h53.57.787,Foreperiod_task,2024.2.4,89.94747050760718,2025-02-03 07h54.05.421516 -0800,
3,0,3,[-0.3525],[0.095625],[1],[0],[0],[1.4776711999438703],[],[],[],[],[],[],,,,2,0,2,0,3,0,3,0,84.45520840003155,,,,,,,,,,,,84.44470659992658,84.45520840003155,0.00012599979527294636,84.45520840003155,84.6551930999849,84.94424410001375,84.94424410001375,84.94424410001375,84.95529070007615,85.92290250002407,0.5,task,0.9776711999438703,[-0.3525],[0.095625],[1],[0],[0],[1.4776711999438703],85.92303039995022,85.93275130004622,5.8099860325455666e-05,86.23264289996587,87.19996410002932,[],[],[],[],[],[],,,,,,,,,,819959,001,2025-02-03_07h53.57.787,Foreperiod_task,2024.2.4,89.94747050760718,2025-02-03 07h54.05.421516 -0800,
4,0,4,[-0.356875],[0.098125],[1],[0],[0],[2.2444611000828445],[],[],[],[],[],[],,,,2,0,2,0,4,0,4,0,87.21043119998649,,,,,,,,,,,,87.20009530009702,87.21043119998649,9.989994578063488e-05,87.21043119998649,87.41045700013638,88.48835780005902,88.48835780005902,88.48835780005902,88.4994876999408,89.44514520000666,1.2875590487155057,task,0.9569020513673387,[-0.356875],[0.098125],[1],[0],[0],[2.2444611000828445],89.44532459997572,89.45507310004905,9.780004620552063e-05,89.75520889996551,90.88915780000389,[],[],[],[],[],[],,,,,,,,,,819959,001,2025-02-03_07h53.57.787,Foreperiod_task,2024.2.4,89.94747050760718,2025-02-03 07h54.05.421516 -0800,
5,0,5,[-0.356875],[0.098125],[1],[0],[0],[0.8997505998704582],[],[],[],[],[],[],,,,2,0,2,0,5,0,5,0,90.89962809998542,,,,,,,,,,,,90.88929340010509,90.89962809998542,0.0001034000888466835,90.89962809998542,91.09955499996431,91.38860950013623,91.38860950013623,91.38860950013623,91.39971329993568,91.78954420005903,0.5,task,0.39975059987045825,[-0.356875],[0.098125],[1],[0],[0],[0.8997505998704582],91.78969960007817,91.79924289998598,5.91999851167202e-05,92.09927550004795,93.41087070014328,[],[],[],[],[],[],,,,,,,,,,819959,001,2025-02-03_07h53.57.787,Foreperiod_task,2024.2.4,89.94747050760718,2025-02-03 07h54.05.421516 -0800,
6,0,6,[-0.356875],[0.098125],[1],[0],[0],[2.3547253001015633],[],[],[],[],[],[],,,,2,0,2,0,6,0,6,0,93.42146430001594,,,,,,,,,,,,93.41109660011716,93.42146430001594,0.00017410004511475563,93.42146430001594,93.62185190012679,95.41065030009486,95.41065030009486,95.41065030009486,95.42192330001853,95.76669990015216,2,task,0.35472530010156333,[-0.356875],[0.098125],[1],[0],[0],[2.3547253001015633],95.76694540004246,95.77622250001878,0.00010239984840154648,96.0773486001417,97.24444129993208,[],[],[],[],[],[],,,,,,,,,,819959,001,2025-02-03_07h53.57.787,Foreperiod_task,2024.2.4,89.94747050760718,2025-02-03 07h54.05.421516 -0800,
7,0,7,[-0.356875],[0.098125],[1],[0],[0],[1.1104906001128256],[],[],[],[],[],[],,,,2,0,2,0,7,0,7,0,97.25484670000151,,,,,,,,,,,,97.24458050006069,97.25484670000151,0.0001151000615209341,97.25484670000151,97.45506549999118,97.7440848001279,97.7440848001279,97.7440848001279,97.75500830006786,98.35557190002874,0.5,task,0.6104906001128256,[-0.356875],[0.098125],[1],[0],[0],[1.1104906001128256],98.35569310002029,98.36585179995745,5.460018292069435e-05,98.66580750001594,99.77846830012277,[],[],[],[],[],[],,,,,,,,,,819959,001,2025-02-03_07h53.57.787,Foreperiod_task,2024.2.4,89.94747050760718,2025-02-03 07h54.05.421516 -0800,
8,0,8,[-0.356875],[0.098125],[1],[0],[0],[0.9663996000308543],[],[],[],[],[],[],,,,2,0,2,0,8,0,8,0,99.78813989995979,,,,,,,,,,,,99.77877650014125,99.78813989995979,0.00023739994503557682,99.78813989995979,99.98841940006241,100.27752749994397,100.27752749994397,100.27752749994397,100.28869449999183,100.74613830004819,0.5,task,0.46639960003085434,[-0.356875],[0.098125],[1],[0],[0],[0.9663996000308543],100.7463291999884,100.7549112001434,8.659996092319489e-05,101.05502720014192,102.24487469997257,[],[],[],[],[],[],,,,,,,,,,819959,001,2025-02-03_07h53.57.787,Foreperiod_task,2024.2.4,89.94747050760718,2025-02-03 07h54.05.421516 -0800,
9,0,9,[-0.356875],[0.098125],[1],[0],[0],[0.6104960001539439],[],[],[],[],[],[],,,,2,0,2,0,9,0,9,0,102.25505600008182,,,,,,,,,,,,102.24524900014512,102.25505600008182,0.00029699993319809437,102.25505600008182,102.45509169995785,102.74413310014643,102.74413310014643,102.74413310014643,102.75511949998327,102.85662600002252,0.5,task,0.1104960001539439,[-0.356875],[0.098125],[1],[0],[0],[0.6104960001539439],102.85684170015156,102.86595449992456,0.00010429997928440571,103.16618319996633,104.18884039996192,[],[],[],[],[],[],,,,,,,,,,819959,001,2025-02-03_07h53.57.787,Foreperiod_task,2024.2.4,89.94747050760718,2025-02-03 07h54.05.421516 -0800,
2,0,2,,,,,,,,,,,,,space,1.232356899883598,None,2,0,2,0,,,,,,,,,,,,,,,,,,,,,,,,,,,,,,,,,,,,,,,,,,,,,,,104.19007840007544,104.19925710000098,104.19925710000098,105.43417529994622,space,1.232356899883598,None,,,819959,001,2025-02-03_07h53.57.787,Foreperiod_task,2024.2.4,89.94747050760718,2025-02-03 07h54.05.421516 -0800,
0,0,0,[-0.356875],[0.098125],[1],[0],[0],[1.4427010000217706],[],[],[],[],[],[],,,,3,0,3,0,0,0,0,0,105.44375400012359,,,,,,,,,,,,105.43465900002047,105.44375400012359,0.0004638000391423702,105.44375400012359,105.64384360006079,105.93293590005487,105.93293590005487,105.93293590005487,105.94383100001141,106.87785920011811,0.5,task,0.9427010000217706,[-0.356875],[0.098125],[1],[0],[0],[1.4427010000217706],106.87799990014173,106.88784789992496,6.019999273121357e-05,107.18793869996443,108.18904060008936,[],[],[],[],[],[],,,,,,,,,,819959,001,2025-02-03_07h53.57.787,Foreperiod_task,2024.2.4,89.94747050760718,2025-02-03 07h54.05.421516 -0800,
1,0,1,[-0.356875],[0.098125],[1],[0],[0],[2.621292300056666],[],[],[],[],[],[],,,,3,0,3,0,1,0,1,0,108.19912190013565,,,,,,,,,,,,108.18939550011419,108.19912190013565,0.00027660001069307327,108.19912190013565,108.39919189992361,110.18809420010075,110.18809420010075,110.18809420010075,110.19910389999859,110.81165520008653,2,task,0.6212923000566661,[-0.356875],[0.098125],[1],[0],[0],[2.621292300056666],110.81199750001542,110.8214557999745,0.0001431000418961048,111.1212605999317,112.47758720000274,[],[],[],[],[],[],,,,,,,,,,819959,001,2025-02-03_07h53.57.787,Foreperiod_task,2024.2.4,89.94747050760718,2025-02-03 07h54.05.421516 -0800,
2,0,2,[-0.356875],[0.098125],[1],[0],[0],[3.7220884999260306],[],[],[],[],[],[],,,,3,0,3,0,2,0,2,0,112.48840319993906,,,,,,,,,,,,112.47772790002637,112.48840319993906,0.00010560010559856892,112.48840319993906,112.68807070003822,114.47722030011937,114.47722030011937,114.47722030011937,114.48829180002213,116.20038549997844,2,task,1.7220884999260306,[-0.356875],[0.098125],[1],[0],[0],[3.7220884999260306],116.20057169999927,116.21003199997358,8.79000872373581e-05,116.51023300015368,117.45640249992721,[],[],[],[],[],[],,,,,,,,,,819959,001,2025-02-03_07h53.57.787,Foreperiod_task,2024.2.4,89.94747050760718,2025-02-03 07h54.05.421516 -0800,
3,0,3,[-0.356875],[0.098125],[1],[0],[0],[2.397322200005874],[],[],[],[],[],[],,,,3,0,3,0,3,0,3,0,117.46583060012199,,,,,,,,,,,,117.45689709996805,117.46583060012199,0.00040829996578395367,117.46583060012199,117.66580770001747,119.45459880004637,119.45459880004637,119.45459880004637,119.46589080011472,119.85515459999442,2,task,0.39732220000587404,[-0.356875],[0.098125],[1],[0],[0],[2.397322200005874],119.85546620003879,119.86562990001403,0.00010810000821948051,120.16584279993549,121.51113989995793,[],[],[],[],[],[],,,,,,,,,,819959,001,2025-02-03_07h53.57.787,Foreperiod_task,2024.2.4,89.94747050760718,2025-02-03 07h54.05.421516 -0800,
4,0,4,[-0.356875],[0.098125],[1],[0],[0],[1.822098000207916],[],[],[],[],[],[],,,,3,0,3,0,4,0,4,0,121.52143750013784,,,,,,,,,,,,121.51142679993063,121.52143750013784,0.0002272999845445156,121.52143750013784,121.72141019999981,122.01053320011124,122.01053320011124,122.01053320011124,122.02143580000848,123.33451519999653,0.5,task,1.322098000207916,[-0.356875],[0.098125],[1],[0],[0],[1.822098000207916],123.33481959998608,123.34361959993839,0.00013509998098015785,123.64358959998935,125.01119600003585,[],[],[],[],[],[],,,,,,,,,,819959,001,2025-02-03_07h53.57.787,Foreperiod_task,2024.2.4,89.94747050760718,2025-02-03 07h54.05.421516 -0800,
5,0,5,[-0.356875],[0.098125],[1],[0],[0],[0.9331329001579434],[],[],[],[],[],[],,,,3,0,3,0,5,0,5,0,125.0212536000181,,,,,,,,,,,,125.01148580014706,125.0212536000181,0.0002171001397073269,125.0212536000181,125.22154609998688,125.51035470003262,125.51035470003262,125.51035470003262,125.5215831999667,125.94539789995179,0.5,task,0.43313290015794337,[-0.356875],[0.098125],[1],[0],[0],[0.9331329001579434],125.94556399993598,125.95452210004441,7.129996083676815e-05,126.25443830015138,127.43336239992641,[],[],[],[],[],[],,,,,,,,,,819959,001,2025-02-03_07h53.57.787,Foreperiod_task,2024.2.4,89.94747050760718,2025-02-03 07h54.05.421516 -0800,
6,0,6,[-0.356875],[0.098125],[1],[0],[0],[2.3549512000754476],[],[],[],[],[],[],,,,3,0,3,0,6,0,6,0,127.44350870000198,,,,,,,,,,,,127.43369560013525,127.44350870000198,0.00022879987955093384,127.44350870000198,127.64359100000001,129.43262289999984,129.43262289999984,129.43262289999984,129.44386720005423,129.78929170011543,2,task,0.35495120007544756,[-0.356875],[0.098125],[1],[0],[0],[2.3549512000754476],129.78946670005098,129.79884400009178,7.609999738633633e-05,130.0990557000041,131.12242330005392,[],[],[],[],[],[],,,,,,,,,,819959,001,2025-02-03_07h53.57.787,Foreperiod_task,2024.2.4,89.94747050760718,2025-02-03 07h54.05.421516 -0800,
7,0,7,[-0.356875],[0.099375],[1],[0],[0],[2.932821699883789],[],[],[],[],[],[],,,,3,0,3,0,7,0,7,0,131.13204760011286,,,,,,,,,,,,131.12278730003163,131.13204760011286,0.0002919998951256275,131.13204760011286,131.3328835000284,133.12156579992734,133.12156579992734,133.12156579992734,133.13244970003143,134.05660720006563,2,task,0.9328216998837888,[-0.356875],[0.099375],[1],[0],[0],[2.932821699883789],134.0568228000775,134.06550180003978,9.980006143450737e-05,134.36566870007664,135.31098560011014,[],[],[],[],[],[],,,,,,,,,,819959,001,2025-02-03_07h53.57.787,Foreperiod_task,2024.2.4,89.94747050760718,2025-02-03 07h54.05.421516 -0800,
8,0,8,[-0.356875],[0.099375],[1],[0],[0],[2.4107259998563677],[],[],[],[],[],[],,,,3,0,3,0,8,0,8,0,135.32126730005257,,,,,,,,,,,,135.31111999996938,135.32126730005257,0.00010100007057189941,135.32126730005257,135.52096719993278,137.31025330000557,137.31025330000557,137.31025330000557,137.32129420014098,137.72266710014082,2,task,0.4107259998563677,[-0.356875],[0.099375],[1],[0],[0],[2.4107259998563677],137.72286859992892,137.73210970009677,9.34000127017498e-05,138.03202169993892,139.01130080013536,[],[],[],[],[],[],,,,,,,,,,819959,001,2025-02-03_07h53.57.787,Foreperiod_task,2024.2.4,89.94747050760718,2025-02-03 07h54.05.421516 -0800,
9,0,9,[-0.356875],[0.099375],[1],[0],[0],[1.3549537998624146],[],[],[],[],[],[],,,,3,0,3,0,9,0,9,0,139.02130530006252,,,,,,,,,,,,139.0115889001172,139.02130530006252,0.00022069993428885937,139.02130530006252,139.22112979996018,139.51006150012836,139.51006150012836,139.51006150012836,139.5214544001501,140.36750570009463,0.5,task,0.8549537998624146,[-0.356875],[0.099375],[1],[0],[0],[1.3549537998624146],140.36773440008983,140.37666650000028,0.00011430005542933941,140.6767281999346,141.79958679992706,[],[],[],[],[],[],,,,,,,,,,819959,001,2025-02-03_07h53.57.787,Foreperiod_task,2024.2.4,89.94747050760718,2025-02-03 07h54.05.421516 -0800,
3,0,3,,,,,,,,,,,,,space,1.0513714000117034,None,3,0,3,0,,,,,,,,,,,,,,,,,,,,,,,,,,,,,,,,,,,,,,,,,,,,,,,141.80240670009516,141.8100640999619,141.8100640999619,142.86745120002888,space,1.0513714000117034,None,,,819959,001,2025-02-03_07h53.57.787,Foreperiod_task,2024.2.4,89.94747050760718,2025-02-03 07h54.05.421516 -0800,
0,0,0,[-0.356875],[0.099375],[1],[0],[0],[2.5868339999578893],[],[],[],[],[],[],,,,4,0,4,0,0,0,0,0,142.876546200132,,,,,,,,,,,,142.8680257999804,142.876546200132,0.000551900127902627,142.876546200132,143.07651660009287,144.86539359996095,144.86539359996095,144.86539359996095,144.87667410005815,145.45544479996897,2,task,0.5868339999578893,[-0.356875],[0.099375],[1],[0],[0],[2.5868339999578893],145.45556750008836,145.46523949992843,5.6399963796138763e-05,145.7653874999378,146.9332737000659,[],[],[],[],[],[],,,,,,,,,,819959,001,2025-02-03_07h53.57.787,Foreperiod_task,2024.2.4,89.94747050760718,2025-02-03 07h54.05.421516 -0800,
1,0,1,[-0.356875],[0.099375],[0],[0],[1],[1.688625899842009],[],[],[],[],[],[],,,,4,0,4,0,1,0,1,0,146.94334150012583,,,,,,,,,,,,146.93356960010715,146.94334150012583,0.00022549997083842754,146.94334150012583,147.14317160006613,147.43241020012647,147.43241020012647,147.43241020012647,147.4434929001145,148.6231048000045,0.5,task,1.188625899842009,[-0.356875],[0.099375],[0],[0],[1],[1.688625899842009],148.62334759999067,148.63275719992816,0.00010149995796382427,148.93198839994147,150.077309000073,[],[],[],[],[],[],,,,,,,,,,819959,001,2025-02-03_07h53.57.787,Foreperiod_task,2024.2.4,89.94747050760718,2025-02-03 07h54.05.421516 -0800,
2,0,2,[-0.356875],[0.099375],[1],[0],[0],[2.3887149000074714],[],[],[],[],[],[],,,,4,0,4,0,2,0,2,0,150.08760620001704,,,,,,,,,,,,150.07761289994232,150.08760620001704,0.0002437999937683344,150.08760620001704,150.2876745001413,152.07676690001972,152.07676690001972,152.07676690001972,152.08788130013272,152.4671988999471,2,task,0.38871490000747144,[-0.356875],[0.099375],[1],[0],[0],[2.3887149000074714],152.46743900002912,152.47647360013798,0.00011489982716739178,152.77649129997008,154.11029800004326,[],[],[],[],[],[],,,,,,,,,,819959,001,2025-02-03_07h53.57.787,Foreperiod_task,2024.2.4,89.94747050760718,2025-02-03 07h54.05.421516 -0800,
3,0,3,[-0.356875],[0.099375],[1],[0],[0],[1.8100411999039352],[],[],[],[],[],[],,,,4,0,4,0,3,0,3,0,154.12079540011473,,,,,,,,,,,,154.11056610010564,154.12079540011473,0.00021249987185001373,154.12079540011473,154.32087279995903,155.5656413999386,155.5656413999386,155.5656413999386,155.5768659999594,155.9215395001229,1.4511582899941704,task,0.3588829099097648,[-0.356875],[0.099375],[1],[0],[0],[1.8100411999039352],155.9217334999703,155.9307770000305,9.210011921823025e-05,156.23201059992425,157.2661303000059,[],[],[],[],[],[],,,,,,,,,,819959,001,2025-02-03_07h53.57.787,Foreperiod_task,2024.2.4,89.94747050760718,2025-02-03 07h54.05.421516 -0800,
4,0,4,[-0.356875],[0.099375],[1],[0],[0],[1.6992627000436187],[],[],[],[],[],[],,,,4,0,4,0,4,0,4,0,157.2765319000464,,,,,,,,,,,,157.26646409998648,157.2765319000464,0.0002685999497771263,157.2765319000464,157.4763907000888,158.58761990000494,158.58761990000494,158.58761990000494,158.5986079000868,158.96640249993652,1.3225061128420703,task,0.37675658720154837,[-0.356875],[0.099375],[1],[0],[0],[1.6992627000436187],158.9666414000094,158.97611559997313,0.00010389997623860836,159.27655249997042,160.5106307999231,[],[],[],[],[],[],,,,,,,,,,819959,001,2025-02-03_07h53.57.787,Foreperiod_task,2024.2.4,89.94747050760718,2025-02-03 07h54.05.421516 -0800,
5,0,5,[-0.356875],[0.099375],[1],[0],[0],[0.9218232999555767],[],[],[],[],[],[],,,,4,0,4,0,5,0,5,0,160.52060950011946,,,,,,,,,,,,160.51096240011975,160.52060950011946,0.0002445999998599291,160.52060950011946,160.72069500014186,161.0097191000823,161.0097191000823,161.0097191000823,161.02092620008625,161.4335252000019,0.5,task,0.42182329995557666,[-0.356875],[0.099375],[1],[0],[0],[0.9218232999555767],161.43379959999584,161.44281330006197,0.00012730015441775322,161.7430197999347,162.76602780004032,[],[],[],[],[],[],,,,,,,,,,819959,001,2025-02-03_07h53.57.787,Foreperiod_task,2024.2.4,89.94747050760718,2025-02-03 07h54.05.421516 -0800,
6,0,6,[-0.356875],[0.099375],[1],[0],[0],[0.03309820010326803],[],[],[],[],[],[],,,,4,0,4,0,6,0,6,0,162.77688700007275,,,,,,,,,,,,162.76634430000558,162.77688700007275,0.00024339999072253704,162.77688700007275,,,,,,162.80052609997801,1.038074327707981,task,-1.0049761276047129,[-0.356875],[0.099375],[1],[0],[0],[0.03309820010326803],162.80076440004632,162.81295090005733,0.00011240015737712383,163.1097715999931,164.02159150014631,[],[],[],[],[],[],,,,,,,,162.81295090005733,163.85412629996426,819959,001,2025-02-03_07h53.57.787,Foreperiod_task,2024.2.4,89.94747050760718,2025-02-03 07h54.05.421516 -0800,
7,0,7,[-0.356875],[0.099375],[1],[0],[0],[2.443995400099084],[],[],[],[],[],[],,,,4,0,4,0,7,0,7,0,164.03180130012333,,,,,,,,,,,,164.02197220013477,164.03180130012333,0.00030329986475408077,164.03180130012333,164.23197420011275,166.02107880008407,166.02107880008407,166.02107880008407,166.03201960003935,166.46688800002448,2,task,0.4439954000990838,[-0.356875],[0.099375],[1],[0],[0],[2.443995400099084],166.46708089997992,166.47632410004735,9.159999899566174e-05,166.7763068000786,168.0431117999833,[],[],[],[],[],[],,,,,,,,,,819959,001,2025-02-03_07h53.57.787,Foreperiod_task,2024.2.4,89.94747050760718,2025-02-03 07h54.05.421516 -0800,
8,0,8,[-0.356875],[0.099375],[1],[0],[0],[1.0115507999435067],[],[],[],[],[],[],,,,4,0,4,0,8,0,8,0,168.052816899959,,,,,,,,,,,,168.04345430014655,168.052816899959,0.0002660001628100872,168.052816899959,168.2539254000876,168.54290700005367,168.54290700005367,168.54290700005367,168.55400390014984,169.05594410002232,0.5,task,0.5115507999435067,[-0.356875],[0.099375],[1],[0],[0],[1.0115507999435067],169.05620360001922,169.0650689001195,0.0001246000174432993,169.36510180006735,170.6107838000171,[],[],[],[],[],[],,,,,,,,,,819959,001,2025-02-03_07h53.57.787,Foreperiod_task,2024.2.4,89.94747050760718,2025-02-03 07h54.05.421516 -0800,
9,0,9,[-0.356875],[0.099375],[1],[0],[0],[0.9330447998363525],[],[],[],[],[],[],,,,4,0,4,0,9,0,9,0,170.62078480003402,,,,,,,,,,,,170.61111139995046,170.62078480003402,0.00025560008361935616,170.62078480003402,170.82046320009977,171.10979220014997,171.10979220014997,171.10979220014997,171.12088180007413,171.54509239993058,0.5,task,0.43304479983635247,[-0.356875],[0.099375],[1],[0],[0],[0.9330447998363525],171.54537170007825,171.55387710011564,0.00014020013622939587,171.85387120000087,173.18810479994863,[],[],[],[],[],[],,,,,,,,,,819959,001,2025-02-03_07h53.57.787,Foreperiod_task,2024.2.4,89.94747050760718,2025-02-03 07h54.05.421516 -0800,
4,0,4,,,,,,,,,,,,,space,0.6683835000731051,None,4,0,4,0,,,,,,,,,,,,,,,,,,,,,,,,,,,,,,,,,,,,,,,,,,,,,,,173.19092570012435,173.19845030014403,173.19845030014403,173.87737579992972,space,0.6683835000731051,None,,,819959,001,2025-02-03_07h53.57.787,Foreperiod_task,2024.2.4,89.94747050760718,2025-02-03 07h54.05.421516 -0800,
0,0,0,[-0.356875],[0.099375],[1],[0],[0],[2.3550142999738455],[],[],[],[],[],[],,,,5,0,5,0,0,0,0,0,173.88729789992794,,,,,,,,,,,,173.87817239994183,173.88729789992794,0.0007810001261532307,173.88729789992794,174.0871644001454,175.8761682000477,175.8761682000477,175.8761682000477,175.88748729997315,176.23409210005775,2,task,0.3550142999738455,[-0.356875],[0.099375],[1],[0],[0],[2.3550142999738455],176.23433810006827,176.24282980011776,0.00011359993368387222,176.5428055000957,177.47685520001687,[],[],[],[],[],[],,,,,,,,,,819959,001,2025-02-03_07h53.57.787,Foreperiod_task,2024.2.4,89.94747050760718,2025-02-03 07h54.05.421516 -0800,
1,0,1,[-0.356875],[0.099375],[1],[0],[0],[0.9113604000303894],[],[],[],[],[],[],,,,5,0,5,0,1,0,1,0,177.48732540011406,,,,,,,,,,,,177.4770500001032,177.48732540011406,0.0001471999567002058,177.48732540011406,177.6871833000332,177.97640609997325,177.97640609997325,177.97640609997325,177.98743770015426,178.3894549999386,0.5,task,0.41136040003038943,[-0.356875],[0.099375],[1],[0],[0],[0.9113604000303894],178.38974130013958,178.3982210000977,0.00011499994434416294,178.69799440004863,179.5885320000816,[],[],[],[],[],[],,,,,,,,,,819959,001,2025-02-03_07h53.57.787,Foreperiod_task,2024.2.4,89.94747050760718,2025-02-03 07h54.05.421516 -0800,
2,0,2,[-0.356875],[0.099375],[1],[0],[0],[0.8882462000474334],[],[],[],[],[],[],,,,5,0,5,0,2,0,2,0,179.59843000001274,,,,,,,,,,,,179.58882170007564,179.59843000001274,0.00022409996017813683,179.59843000001274,179.79839990008622,180.08746980014257,180.08746980014257,180.08746980014257,180.0987573999446,180.47790280007757,0.5,task,0.3882462000474334,[-0.356875],[0.099375],[1],[0],[0],[0.8882462000474334],180.4781750999391,180.4870945001021,0.00013859989121556282,180.78720060014166,182.06606650003232,[],[],[],[],[],[],,,,,,,,,,819959,001,2025-02-03_07h53.57.787,Foreperiod_task,2024.2.4,89.94747050760718,2025-02-03 07h54.05.421516 -0800,
3,0,3,[-0.356875],[0.099375],[1],[0],[0],[0.8770572000648826],[],[],[],[],[],[],,,,5,0,5,0,3,0,3,0,182.0761742000468,,,,,,,,,,,,182.06641270010732,182.0761742000468,0.00027600000612437725,182.0761742000468,182.27597710001282,182.5649133999832,182.5649133999832,182.5649133999832,182.5761190999765,182.9443916999735,0.5,task,0.37705720006488264,[-0.356875],[0.099375],[1],[0],[0],[0.8770572000648826],182.94462680001743,182.95384340011515,0.00010850001126527786,183.2538976999931,184.43199050007388,[],[],[],[],[],[],,,,,,,,,,819959,001,2025-02-03_07h53.57.787,Foreperiod_task,2024.2.4,89.94747050760718,2025-02-03 07h54.05.421516 -0800,
4,0,4,[-0.356875],[0.099375],[1],[0],[0],[0.8894800001289696],[],[],[],[],[],[],,,,5,0,5,0,4,0,4,0,184.4427452001255,,,,,,,,,,,,184.43227019999176,184.4427452001255,0.00022869999520480633,184.4427452001255,184.64270059997216,184.93151940009557,184.93151940009557,184.93151940009557,184.9426788999699,185.3223852000665,0.5,task,0.38948000012896955,[-0.356875],[0.099375],[1],[0],[0],[0.8894800001289696],185.32250720006414,185.33150490000844,5.8900099247694016e-05,185.6313440001104,186.77677060011774,[],[],[],[],[],[],,,,,,,,,,819959,001,2025-02-03_07h53.57.787,Foreperiod_task,2024.2.4,89.94747050760718,2025-02-03 07h54.05.421516 -0800,
5,0,5,[-0.356875],[0.099375],[1],[0],[0],[2.3768544998019934],[],[],[],[],[],[],,,,5,0,5,0,5,0,5,0,186.7870758001227,,,,,,,,,,,,186.77703190012835,186.7870758001227,0.00020290003158152103,186.7870758001227,186.98700969992206,188.77609049994498,188.77609049994498,188.77609049994498,188.78731280006468,189.15439289994538,2,task,0.37685449980199337,[-0.356875],[0.099375],[1],[0],[0],[2.3768544998019934],189.1545301999431,189.16442460007966,5.8399979025125504e-05,189.46481700008735,190.82092630001716,[],[],[],[],[],[],,,,,,,,,,819959,001,2025-02-03_07h53.57.787,Foreperiod_task,2024.2.4,89.94747050760718,2025-02-03 07h54.05.421516 -0800,
6,0,6,[-0.356875],[0.099375],[1],[0],[0],[2.4220537000801414],[],[],[],[],[],[],,,,5,0,5,0,6,0,6,0,190.83144930005074,,,,,,,,,,,,190.82122000004165,190.83144930005074,0.00023959996178746223,190.83144930005074,191.03153309994377,192.8205208000727,192.8205208000727,192.8205208000727,192.83159369998612,193.2440615000669,2,task,0.4220537000801414,[-0.356875],[0.099375],[1],[0],[0],[2.4220537000801414],193.24422800005414,193.25357030006126,8.020014502108097e-05,193.5535256001167,194.83183129993267,[],[],[],[],[],[],,,,,,,,,,819959,001,2025-02-03_07h53.57.787,Foreperiod_task,2024.2.4,89.94747050760718,2025-02-03 07h54.05.421516 -0800,
7,0,7,[-0.356875],[0.099375],[1],[0],[0],[2.4119438000489026],[],[],[],[],[],[],,,,5,0,5,0,7,0,7,0,194.84262689994648,,,,,,,,,,,,194.8320861000102,194.84262689994648,0.00019890000112354755,194.84262689994648,195.0425482999999,196.83166599995457,196.83166599995457,196.83166599995457,196.84274160000496,197.24509710003622,2,task,0.41194380004890263,[-0.356875],[0.099375],[1],[0],[0],[2.4119438000489026],197.24546210002154,197.25364270014688,0.0001604999415576458,197.55363789992407,198.4654725000728,[],[],[],[],[],[],,,,,,,,,,819959,001,2025-02-03_07h53.57.787,Foreperiod_task,2024.2.4,89.94747050760718,2025-02-03 07h54.05.421516 -0800,
8,0,8,[-0.356875],[0.099375],[1],[0],[0],[0.9219634002074599],[],[],[],[],[],[],,,,5,0,5,0,8,0,8,0,198.47576580010355,,,,,,,,,,,,198.46578660001978,198.47576580010355,0.00025410018861293793,198.47576580010355,198.67587930010632,198.96483840001747,198.96483840001747,198.96483840001747,198.97594480006956,199.38840780011378,0.5,task,0.4219634002074599,[-0.356875],[0.099375],[1],[0],[0],[0.9219634002074599],199.38859590003267,199.3979311999865,8.299993351101875e-05,199.6978048000019,200.64352939999662,[],[],[],[],[],[],,,,,,,,,,819959,001,2025-02-03_07h53.57.787,Foreperiod_task,2024.2.4,89.94747050760718,2025-02-03 07h54.05.421516 -0800,
9,0,9,[-0.356875],[0.099375],[1],[0],[0],[1.7112863999791443],[],[],[],[],[],[],,,,5,0,5,0,9,0,9,0,200.65342120011337,,,,,,,,,,,,200.64384789997712,200.65342120011337,0.00024969992227852345,200.65342120011337,200.85341780004092,201.9871704999823,201.9871704999823,201.9871704999823,201.99816099996679,202.35602049995214,1.3485280617691373,task,0.362758338210007,[-0.356875],[0.099375],[1],[0],[0],[1.7112863999791443],202.3562108001206,202.3645367999561,8.850009180605412e-05,202.66445089993067,203.66538919997402,[],[],[],[],[],[],,,,,,,,,,819959,001,2025-02-03_07h53.57.787,Foreperiod_task,2024.2.4,89.94747050760718,2025-02-03 07h54.05.421516 -0800,
5,0,5,,,,,,,,,,,,,space,0.7596942998934537,None,5,0,5,0,,,,,,,,,,,,,,,,,,,,,,,,,,,,,,,,,,,,,,,,,,,,,,,203.66840269998647,203.6758250000421,203.6758250000421,204.44401219999418,space,0.7596942998934537,None,,,819959,001,2025-02-03_07h53.57.787,Foreperiod_task,2024.2.4,89.94747050760718,2025-02-03 07h54.05.421516 -0800,
0,0,0,[-0.356875],[0.099375],[1],[0],[0],[2.3991938999388367],[],[],[],[],[],[],,,,6,0,6,0,0,0,0,0,204.45348970009945,,,,,,,,,,,,204.44453640002757,204.45348970009945,0.0005040999967604876,204.45348970009945,204.653524100082,206.44253890006803,206.44253890006803,206.44253890006803,206.45378919993527,206.84453479992226,2,task,0.3991938999388367,[-0.356875],[0.099375],[1],[0],[0],[2.3991938999388367],206.84480209997855,206.85359600000083,0.00011439993977546692,207.153239000123,208.37559810001403,[],[],[],[],[],[],,,,,,,,,,819959,001,2025-02-03_07h53.57.787,Foreperiod_task,2024.2.4,89.94747050760718,2025-02-03 07h54.05.421516 -0800,
1,0,1,[-0.356875],[0.099375],[1],[0],[0],[2.4116876998450607],[],[],[],[],[],[],,,,6,0,6,0,1,0,1,0,208.3865996999666,,,,,,,,,,,,208.37571960012428,208.3865996999666,9.429990313947201e-05,208.3865996999666,208.58686799998395,210.3754352000542,210.3754352000542,210.3754352000542,210.38657349999994,210.78795949998312,2,task,0.4116876998450607,[-0.356875],[0.099375],[1],[0],[0],[2.4116876998450607],210.78817060007714,210.79743909998797,9.58999153226614e-05,211.09764420008287,212.20946480007842,[],[],[],[],[],[],,,,,,,,,,819959,001,2025-02-03_07h53.57.787,Foreperiod_task,2024.2.4,89.94747050760718,2025-02-03 07h54.05.421516 -0800,
2,0,2,[-0.356875],[0.099375],[1],[0],[0],[0.9667279999703169],[],[],[],[],[],[],,,,6,0,6,0,2,0,2,0,212.2200204001274,,,,,,,,,,,,212.2098137999419,212.2200204001274,0.000286600086838007,212.2200204001274,212.4200242999941,212.70923310006037,212.70923310006037,212.70923310006037,212.72031440003775,213.17764030001126,0.5,task,0.4667279999703169,[-0.356875],[0.099375],[1],[0],[0],[0.9667279999703169],213.1779652000405,213.18676310009323,0.00013100006617605686,213.4864064999856,214.7541567001026,[],[],[],[],[],[],,,,,,,,,,819959,001,2025-02-03_07h53.57.787,Foreperiod_task,2024.2.4,89.94747050760718,2025-02-03 07h54.05.421516 -0800,
3,0,3,[-0.356875],[0.099375],[1],[0],[0],[0.9328875998035073],[],[],[],[],[],[],,,,6,0,6,0,3,0,3,0,214.7645346999634,,,,,,,,,,,,214.75442350003868,214.7645346999634,0.00019979989156126976,214.7645346999634,214.96439320011996,215.25362390000373,215.25362390000373,215.25362390000373,215.26467059995048,215.68816299992613,0.5,task,0.43288759980350733,[-0.356875],[0.099375],[1],[0],[0],[0.9328875998035073],215.6883612999227,215.69777440000325,9.059999138116837e-05,215.99775750003755,217.15376999997534,[],[],[],[],[],[],,,,,,,,,,819959,001,2025-02-03_07h53.57.787,Foreperiod_task,2024.2.4,89.94747050760718,2025-02-03 07h54.05.421516 -0800,
4,0,4,[-0.356875],[0.099375],[1],[0],[0],[2.422721700044349],[],[],[],[],[],[],,,,6,0,6,0,4,0,4,0,217.16448720009066,,,,,,,,,,,,217.15390269993804,217.16448720009066,0.0001012999564409256,217.16448720009066,217.36446120007895,219.15313989995047,219.15313989995047,219.15313989995047,219.1642233999446,219.57741779997014,2,task,0.42272170004434884,[-0.356875],[0.099375],[1],[0],[0],[2.422721700044349],219.5776705001481,219.58653410011902,0.00011499994434416294,219.88672980014235,221.10953010013327,[],[],[],[],[],[],,,,,,,,,,819959,001,2025-02-03_07h53.57.787,Foreperiod_task,2024.2.4,89.94747050760718,2025-02-03 07h54.05.421516 -0800,
5,0,5,[-0.356875],[0.099375],[1],[0],[0],[0.9111887000035495],[],[],[],[],[],[],,,,6,0,6,0,5,0,5,0,221.11986320000142,,,,,,,,,,,,221.10980380000547,221.11986320000142,0.0002180000301450491,221.11986320000142,221.31994529999793,221.6089018001221,221.6089018001221,221.6089018001221,221.61996549996547,222.02185250003822,0.5,task,0.41118870000354946,[-0.356875],[0.099375],[1],[0],[0],[0.9111887000035495],222.02208920009434,222.03102990007028,0.00012199999764561653,222.3309832001105,223.4872332001105,[],[],[],[],[],[],,,,,,,,,,819959,001,2025-02-03_07h53.57.787,Foreperiod_task,2024.2.4,89.94747050760718,2025-02-03 07h54.05.421516 -0800,
6,0,6,[-0.356875],[0.099375],[1],[0],[0],[0.9203021000139415],[],[],[],[],[],[],,,,6,0,6,0,6,0,6,0,223.4974684000481,,,,,,,,,,,,223.4874492001254,223.4974684000481,0.00016729999333620071,223.4974684000481,223.69763780012727,223.98683000006713,223.98683000006713,223.98683000006713,223.99782470008358,224.40845030010678,0.5,task,0.4203021000139415,[-0.356875],[0.099375],[1],[0],[0],[0.9203021000139415],224.4086496999953,224.41966670006514,9.119999594986439e-05,224.71976800006814,225.7643548999913,[],[],[],[],[],[],,,,,,,,,,819959,001,2025-02-03_07h53.57.787,Foreperiod_task,2024.2.4,89.94747050760718,2025-02-03 07h54.05.421516 -0800,
7,0,7,[-0.356875],[0.099375],[1],[0],[0],[0.8788541001267731],[],[],[],[],[],[],,,,6,0,6,0,7,0,7,0,225.77521560015157,,,,,,,,,,,,225.76452339999378,225.77521560015157,0.000130500178784132,225.77521560015157,225.97542600007728,226.2646381999366,226.2646381999366,226.2646381999366,226.2756910000462,226.64409160008654,0.5,task,0.3788541001267731,[-0.356875],[0.099375],[1],[0],[0],[0.8788541001267731],226.64432570012286,226.6531316000037,0.00013340008445084095,226.95306179998443,227.95369530003518,[],[],[],[],[],[],,,,,,,,,,819959,001,2025-02-03_07h53.57.787,Foreperiod_task,2024.2.4,89.94747050760718,2025-02-03 07h54.05.421516 -0800,
8,0,8,[-0.356875],[0.099375],[1],[0],[0],[2.3562509999610484],[],[],[],[],[],[],,,,6,0,6,0,8,0,8,0,227.9641289000865,,,,,,,,,,,,227.9540091000963,227.9641289000865,0.0002855001948773861,227.9641289000865,228.16407050006092,229.95334640005603,229.95334640005603,229.95334640005603,229.96443430008367,230.3108787999954,2,task,0.35625099996104836,[-0.356875],[0.099375],[1],[0],[0],[2.3562509999610484],230.31102080014534,230.31949999998324,7.449998520314693e-05,230.61983550013974,231.59775019995868,[],[],[],[],[],[],,,,,,,,,,819959,001,2025-02-03_07h53.57.787,Foreperiod_task,2024.2.4,89.94747050760718,2025-02-03 07h54.05.421516 -0800,
9,0,9,[-0.356875],[0.099375],[1],[0],[0],[0.8671428000088781],[],[],[],[],[],[],,,,6,0,6,0,9,0,9,0,231.60846190014854,,,,,,,,,,,,231.59789770003408,231.60846190014854,0.000112100038677454,231.60846190014854,231.80836110003293,232.0973008000292,232.0973008000292,232.0973008000292,232.10843949997798,232.46582909999415,0.5,task,0.3671428000088781,[-0.356875],[0.099375],[1],[0],[0],[0.8671428000088781],232.46609240002,232.475317500066,0.00012529990635812283,232.77502249996178,233.9314495001454,[],[],[],[],[],[],,,,,,,,,,819959,001,2025-02-03_07h53.57.787,Foreperiod_task,2024.2.4,89.94747050760718,2025-02-03 07h54.05.421516 -0800,
6,0,6,,,,,,,,,,,,,space,0.776908400002867,None,6,0,6,0,,,,,,,,,,,,,,,,,,,,,,,,,,,,,,,,,,,,,,,,,,,,,,,233.93538679997437,233.9418107001111,233.9418107001111,234.72121510002762,space,0.776908400002867,None,,,819959,001,2025-02-03_07h53.57.787,Foreperiod_task,2024.2.4,89.94747050760718,2025-02-03 07h54.05.421516 -0800,
0,0,0,[-0.356875],[0.099375],[1],[0],[0],[1.10951630002819],[],[],[],[],[],[],,,,7,0,7,0,0,0,0,0,234.73082670010626,,,,,,,,,,,,234.72178220003843,234.73082670010626,0.0005463000852614641,234.73082670010626,234.93073080014437,235.2199466000311,235.2199466000311,235.2199466000311,235.23093300010078,235.83232809999026,0.5,task,0.60951630002819,[-0.356875],[0.099375],[1],[0],[0],[1.10951630002819],235.83264559996314,235.8420462999493,0.00013229995965957642,236.14197120000608,237.37634970014915,[],[],[],[],[],[],,,,,,,,,,819959,001,2025-02-03_07h53.57.787,Foreperiod_task,2024.2.4,89.94747050760718,2025-02-03 07h54.05.421516 -0800,
1,0,1,[-0.356875],[0.099375],[1],[0],[0],[0.8881488998886198],[],[],[],[],[],[],,,,7,0,7,0,1,0,1,0,237.3862572000362,,,,,,,,,,,,237.37662600004114,237.3862572000362,0.00021610013209283352,237.3862572000362,237.58635860006325,237.8751082001254,237.8751082001254,237.8751082001254,237.8862864000257,238.26560829998925,0.5,task,0.3881488998886198,[-0.356875],[0.099375],[1],[0],[0],[0.8881488998886198],238.2658311999403,238.2751571999397,0.00010149995796382427,238.57509890012443,239.74263969995081,[],[],[],[],[],[],,,,,,,,,,819959,001,2025-02-03_07h53.57.787,Foreperiod_task,2024.2.4,89.94747050760718,2025-02-03 07h54.05.421516 -0800,
2,0,2,[-0.356875],[0.099375],[1],[0],[0],[0.15503240004181862],[],[],[],[],[],[],,,,7,0,7,0,2,0,2,0,239.7531125000678,,,,,,,,,,,,239.74303469993174,239.7531125000678,0.0003129001706838608,239.7531125000678,,,,,,239.8990269000642,2,task,-1.8449675999581814,[-0.356875],[0.099375],[1],[0],[0],[0.15503240004181862],239.89923910005018,239.9085796000436,9.900005534291267e-05,240.2088381999638,241.3540217000991,[],[],[],[],[],[],,,,,,,,239.9085796000436,,819959,001,2025-02-03_07h53.57.787,Foreperiod_task,2024.2.4,89.94747050760718,2025-02-03 07h54.05.421516 -0800,
3,0,3,[-0.356875],[0.099375],[1],[0],[0],[0.8662572000175714],[],[],[],[],[],[],,,,7,0,7,0,3,0,3,0,241.36409769998863,,,,,,,,,,,,241.35432919999585,241.36409769998863,0.00022070016711950302,241.36409769998863,241.56413529999554,241.85319530009292,241.85319530009292,241.85319530009292,241.86424869997427,242.22138560004532,0.5,task,0.36625720001757145,[-0.356875],[0.099375],[1],[0],[0],[0.8662572000175714],242.22158659994602,242.23054959997535,9.58999153226614e-05,242.53079430013895,243.47585709998384,[],[],[],[],[],[],,,,,,,,,,819959,001,2025-02-03_07h53.57.787,Foreperiod_task,2024.2.4,89.94747050760718,2025-02-03 07h54.05.421516 -0800,
4,0,4,[-0.356875],[0.099375],[1],[0],[0],[2.4223243000451475],[],[],[],[],[],[],,,,7,0,7,0,4,0,4,0,243.48584010009654,,,,,,,,,,,,243.47624720004387,243.48584010009654,0.0002671999391168356,243.48584010009654,243.6862685000524,245.4753487999551,245.4753487999551,245.4753487999551,245.486501700012,245.8994481000118,2,task,0.42232430004514754,[-0.356875],[0.099375],[1],[0],[0],[2.4223243000451475],245.89971449994482,245.90831560012884,0.00012159999459981918,246.2083338999655,247.27608390012756,[],[],[],[],[],[],,,,,,,,,,819959,001,2025-02-03_07h53.57.787,Foreperiod_task,2024.2.4,89.94747050760718,2025-02-03 07h54.05.421516 -0800,
5,0,5,[-0.356875],[0.099375],[1],[0],[0],[0.8552810999099165],[],[],[],[],[],[],,,,7,0,7,0,5,0,5,0,247.28610990010202,,,,,,,,,,,,247.27642190014012,247.28610990010202,0.0002677999436855316,247.28610990010202,247.48629819997586,247.77518190001138,247.77518190001138,247.77518190001138,247.78630769997835,248.1324436001014,0.5,task,0.3552810999099165,[-0.356875],[0.099375],[1],[0],[0],[0.8552810999099165],248.13268949999474,248.14175059995614,0.00011239992454648018,248.44046750012785,249.38709850003943,[],[],[],[],[],[],,,,,,,,,,819959,001,2025-02-03_07h53.57.787,Foreperiod_task,2024.2.4,89.94747050760718,2025-02-03 07h54.05.421516 -0800,
6,0,6,[-0.356875],[0.099375],[1],[0],[0],[2.354738099966198],[],[],[],[],[],[],,,,7,0,7,0,6,0,6,0,249.3973046001047,,,,,,,,,,,,249.38745049992576,249.3973046001047,0.0002598999999463558,249.3973046001047,249.59715109993704,251.38641800009646,251.38641800009646,251.38641800009646,251.39741410012357,251.7431731999386,2,task,0.3547380999661982,[-0.356875],[0.099375],[1],[0],[0],[2.354738099966198],251.7435368001461,251.75268959999084,0.0001629998441785574,252.0526978999842,253.1866884001065,[],[],[],[],[],[],,,,,,,,,,819959,001,2025-02-03_07h53.57.787,Foreperiod_task,2024.2.4,89.94747050760718,2025-02-03 07h54.05.421516 -0800,
7,0,7,[-0.356875],[0.099375],[1],[0],[0],[2.388938399963081],[],[],[],[],[],[],,,,7,0,7,0,7,0,7,0,253.19714860012755,,,,,,,,,,,,253.18700079992414,253.19714860012755,0.0002601000014692545,253.19714860012755,253.3973082001321,255.18636410008185,255.18636410008185,255.18636410008185,255.19743880000897,255.5770292999223,2,task,0.3889383999630809,[-0.356875],[0.099375],[1],[0],[0],[2.388938399963081],255.57729119993746,255.58615679992363,0.00012019998393952847,255.88594900001772,257.10915699996985,[],[],[],[],[],[],,,,,,,,,,819959,001,2025-02-03_07h53.57.787,Foreperiod_task,2024.2.4,89.94747050760718,2025-02-03 07h54.05.421516 -0800,
8,0,8,[-0.356875],[0.099375],[1],[0],[0],[1.6664587000850588],[],[],[],[],[],[],,,,7,0,7,0,8,0,8,0,257.11953580006957,,,,,,,,,,,,257.10945440013893,257.11953580006957,0.00023570004850625992,257.11953580006957,257.31957469996996,258.2973524001427,258.2973524001427,258.2973524001427,258.3084593999665,258.77667970000766,1.1932556279179485,task,0.47320307216711033,[-0.356875],[0.099375],[1],[0],[0],[1.6664587000850588],258.77679980010726,258.7859743000008,6.240000948309898e-05,259.0858976999298,260.36327060009353,[],[],[],[],[],[],,,,,,,,,,819959,001,2025-02-03_07h53.57.787,Foreperiod_task,2024.2.4,89.94747050760718,2025-02-03 07h54.05.421516 -0800,
9,0,9,,,,,,,,,,,,,,,,,,,,9,0,9,0,,,,,,,,,,,,,,,,,,,,,,,,,,,,,,,,,,,,,,,,,,,,,,,,,,,,,,,,,,,
