thisN,thisTrialN,thisRepN,mouse.x,mouse.y,mouse.leftButton,mouse.midButton,mouse.rightButton,mouse.time,key_resp_5.keys,key_resp_5.rt,key_resp_5.duration,trials_3.thisRepN,trials_3.thisTrialN,trials_3.thisN,trials_3.thisIndex,trials_2.thisRepN,trials_2.thisTrialN,trials_2.thisN,trials_2.thisIndex,thisRow.t,notes,Welcome_Screen.started,Welcome_Text.started,mouse_2.started,Welcome_Screen.stopped,mouse_2.x,mouse_2.y,mouse_2.leftButton,mouse_2.midButton,mouse_2.rightButton,mouse_2.time,Trial_2.started,PLUS_FP.started,mouse.started,AVG.started,Photodiode_plus.started,Photodiode_plus.stopped,PLUS_FP.stopped,polygon.started,Photodiode_polygon.started,Photodiode_polygon.stopped,Trial_2.stopped,FixDur,Type,RT,trials_2.mouse.x,trials_2.mouse.y,trials_2.mouse.leftButton,trials_2.mouse.midButton,trials_2.mouse.rightButton,trials_2.mouse.time,Intertrial_Period.started,Photodiode_2.started,Photodiode_2.stopped,Intertrial_Period.stopped,BREAK.started,Instructions.started,key_resp_5.started,BREAK.stopped,trials_3.key_resp_5.keys,trials_3.key_resp_5.rt,trials_3.key_resp_5.duration,text.started,text.stopped,participant,session,date,expName,psychopyVersion,frameRate,expStart,
,,,,,,,,,,,,,,,,,,,,,,0.003422299399971962,0.007941599935293198,0.00318790040910244,0.9920981992036104,[-0.05925925925925926],[0.11666666666666667],[1],[0],[0],[0.9881621999666095],,,,,,,,,,,,,,,,,,,,,,,,,,,,,,,,,,Bradley,001,2024-11-13_10h15.45.124,Foreperiod_task,2024.2.1post4,59.96832464331937,2024-11-13 10h15.54.717882 -0800,
0,0,0,[-0.05925925925925926],[0.11666666666666667],[1],[0],[0],[0.8836706997826695],,,,0,0,0,0,0,0,0,0,1.0077915992587805,,,,,,,,,,,,0.9928730996325612,1.0077915992587805,0.000719199888408184,1.0077915992587805,1.0077915992587805,1.2085909992456436,1.4919274998828769,1.4919274998828769,1.4919274998828769,1.508653299883008,1.8773373998701572,0.5,normal,0.38367069978266954,[-0.05925925925925926],[0.11666666666666667],[1],[0],[0],[0.8836706997826695],1.8778001992031932,1.8928416995331645,2.1928083999082446,3.5443466994911432,,,,,,,,,,Bradley,001,2024-11-13_10h15.45.124,Foreperiod_task,2024.2.1post4,59.96832464331937,2024-11-13 10h15.54.717882 -0800,
1,0,1,[-0.040740740740740744],[0.16666666666666666],[1],[0],[0],[2.251378200016916],,,,0,0,0,0,1,0,1,0,3.56055870000273,,,,,,,,,,,,3.5445888992398977,3.56055870000273,0.0002557998523116112,3.56055870000273,3.56055870000273,3.7605009991675615,5.5451261000707746,5.5451261000707746,5.5451261000707746,5.561783299781382,5.796514899469912,2,normal,0.2513782000169158,[-0.040740740740740744],[0.16666666666666666],[1],[0],[0],[2.251378200016916],5.796763399615884,5.812316299416125,6.112631599418819,7.447282999753952,,,,,,,,,,Bradley,001,2024-11-13_10h15.45.124,Foreperiod_task,2024.2.1post4,59.96832464331937,2024-11-13 10h15.54.717882 -0800,
2,0,2,[-0.05555555555555555],[0.17222222222222222],[1],[0],[0],[2.351989599876106],,,,0,0,0,0,2,0,2,0,7.463561899960041,,,,,,,,,,,,7.4473842000588775,7.463561899960041,0.00010640081018209457,7.463561899960041,7.463561899960041,7.663724899291992,9.448666799813509,9.448666799813509,9.448666799813509,9.4654291998595,9.799776500090957,2,normal,0.3519895998761058,[-0.05555555555555555],[0.17222222222222222],[1],[0],[0],[2.351989599876106],9.799961599521339,9.815662599168718,10.11623409949243,11.484131000004709,,,,,,,,,,Bradley,001,2024-11-13_10h15.45.124,Foreperiod_task,2024.2.1post4,59.96832464331937,2024-11-13 10h15.54.717882 -0800,
3,0,3,[0.028703703703703703],[0.28055555555555556],[1],[0],[0],[2.235555099323392],,,,0,0,0,0,3,0,3,0,11.500624199397862,,,,,,,,,,,,11.484225299209356,11.500624199397862,9.779911488294601e-05,11.500624199397862,11.500624199397862,11.700225999578834,13.485834499821067,13.485834499821067,13.485834499821067,13.502464599907398,13.72048519924283,2,normal,0.23555509932339191,[0.028703703703703703],[0.28055555555555556],[1],[0],[0],[2.235555099323392],13.720804399810731,13.735821899957955,14.036101199686527,15.021184799261391,,,,,,,,,,Bradley,001,2024-11-13_10h15.45.124,Foreperiod_task,2024.2.1post4,59.96832464331937,2024-11-13 10h15.54.717882 -0800,
4,0,4,[0.016666666666666666],[0.2814814814814815],[1],[0],[0],[2.4512843005359173],,,,0,0,0,0,4,0,4,0,15.036960399709642,,,,,,,,,,,,15.021470899693668,15.036960399709642,0.00028750021010637283,15.036960399709642,15.036960399709642,15.23731149919331,17.02199269924313,17.02199269924313,17.02199269924313,17.038641999475658,17.473458799533546,2,normal,0.4512843005359173,[0.016666666666666666],[0.2814814814814815],[1],[0],[0],[2.4512843005359173],17.47389809973538,17.489019500091672,17.78927969932556,18.80753059964627,,,,,,,,,,Bradley,001,2024-11-13_10h15.45.124,Foreperiod_task,2024.2.1post4,59.96832464331937,2024-11-13 10h15.54.717882 -0800,
5,0,5,[0.016666666666666666],[0.2814814814814815],[1],[0],[0],[2.234660700894892],,,,0,0,0,0,5,0,5,0,18.823499899357557,,,,,,,,,,,,18.807813099585474,18.823499899357557,0.0002934001386165619,18.823499899357557,18.823499899357557,19.02359589934349,20.80855149962008,20.80855149962008,20.80855149962008,20.825318600051105,21.04313789959997,2,normal,0.23466070089489222,[0.016666666666666666],[0.2814814814814815],[1],[0],[0],[2.234660700894892],21.043480399996042,21.058589399792254,21.358689500018954,22.677542000077665,,,,,,,,,,Bradley,001,2024-11-13_10h15.45.124,Foreperiod_task,2024.2.1post4,59.96832464331937,2024-11-13 10h15.54.717882 -0800,
6,0,6,[-0.02962962962962963],[0.2574074074074074],[1],[0],[0],[2.234821300022304],,,,0,0,0,0,6,0,6,0,22.692590599879622,,,,,,,,,,,,22.677753999829292,22.692590599879622,0.00022090040147304535,22.692590599879622,22.692590599879622,22.89357229974121,24.678350599482656,24.678350599482656,24.678350599482656,24.694993599317968,24.913196299225092,2,normal,0.23482130002230406,[-0.02962962962962963],[0.2574074074074074],[1],[0],[0],[2.234821300022304],24.913536299951375,24.92847289983183,25.229041999205947,26.21357630006969,,,,,,,,,,Bradley,001,2024-11-13_10h15.45.124,Foreperiod_task,2024.2.1post4,59.96832464331937,2024-11-13 10h15.54.717882 -0800,
7,0,7,[-0.02962962962962963],[0.2574074074074074],[1],[0],[0],[2.2516249995678663],,,,0,0,0,0,7,0,7,0,26.22967469971627,,,,,,,,,,,,26.2138596996665,26.22967469971627,0.0002985997125506401,26.22967469971627,26.22967469971627,26.43012689985335,28.214654699899256,28.214654699899256,28.214654699899256,28.23166809976101,28.4661817997694,2,normal,0.2516249995678663,[-0.02962962962962963],[0.2574074074074074],[1],[0],[0],[2.2516249995678663],28.466546399518847,28.48154499940574,28.78167719952762,29.76655749976635,,,,,,,,,,Bradley,001,2024-11-13_10h15.45.124,Foreperiod_task,2024.2.1post4,59.96832464331937,2024-11-13 10h15.54.717882 -0800,
8,0,8,[-0.03333333333333333],[0.26296296296296295],[1],[0],[0],[0.9507698006927967],,,,0,0,0,0,8,0,8,0,29.782573899254203,,,,,,,,,,,,29.766808699816465,29.782573899254203,0.00026459991931915283,29.782573899254203,29.782573899254203,29.98219189979136,30.266530899330974,30.266530899330974,30.266530899330974,30.283060499466956,30.71838349942118,0.5,normal,0.4507698006927967,[-0.03333333333333333],[0.26296296296296295],[1],[0],[0],[0.9507698006927967],30.718833599239588,30.733498699963093,31.033765699714422,32.05244820006192,,,,,,,,,,Bradley,001,2024-11-13_10h15.45.124,Foreperiod_task,2024.2.1post4,59.96832464331937,2024-11-13 10h15.54.717882 -0800,
9,0,9,[-0.03981481481481482],[0.262037037037037],[1],[0],[0],[2.2841789005324244],,,,0,0,0,0,9,0,9,0,32.06792509928346,,,,,,,,,,,,32.05276869982481,32.06792509928346,0.0003289002925157547,32.06792509928346,32.06792509928346,32.26815429981798,34.052707399241626,34.052707399241626,34.052707399241626,34.06948699988425,34.337727999314666,2,normal,0.28417890053242445,[-0.03981481481481482],[0.262037037037037],[1],[0],[0],[2.2841789005324244],34.33813919965178,34.353067399933934,34.65322279930115,35.60397219937295,,,,,,,,,,Bradley,001,2024-11-13_10h15.45.124,Foreperiod_task,2024.2.1post4,59.96832464331937,2024-11-13 10h15.54.717882 -0800,
10,0,10,[-0.03981481481481482],[0.262037037037037],[1],[0],[0],[2.0346293998882174],,,,0,0,0,0,10,0,10,0,35.620286299847066,,,,,,,,,,,,35.60407239943743,35.620286299847066,0.00010300055146217346,35.620286299847066,35.620286299847066,35.82025530003011,36.88844299968332,36.88844299968332,36.88844299968332,36.905298999510705,37.639101799577475,1.2787959085238438,surprise,0.7558334913643736,[-0.03981481481481482],[0.262037037037037],[1],[0],[0],[2.0346293998882174],37.63936090003699,37.65511319972575,37.955546899698675,38.9067301992327,,,,,,,,,,Bradley,001,2024-11-13_10h15.45.124,Foreperiod_task,2024.2.1post4,59.96832464331937,2024-11-13 10h15.54.717882 -0800,
11,0,11,[-0.03981481481481482],[0.262037037037037],[1],[0],[0],[2.2350415997207165],,,,0,0,0,0,11,0,11,0,38.92359859962016,,,,,,,,,,,,38.906928699463606,38.92359859962016,0.00020159967243671417,38.92359859962016,38.92359859962016,39.1235549999401,40.907860999926925,40.907860999926925,40.907860999926925,40.924463799223304,41.14236789941788,2,normal,0.23504159972071648,[-0.03981481481481482],[0.262037037037037],[1],[0],[0],[2.2350415997207165],41.14253479987383,41.15805469918996,41.458431199193,42.45963569916785,,,,,,,,,,Bradley,001,2024-11-13_10h15.45.124,Foreperiod_task,2024.2.1post4,59.96832464331937,2024-11-13 10h15.54.717882 -0800,
12,0,12,[-0.04259259259259259],[0.2611111111111111],[1],[0],[0],[0.9339771000668406],,,,0,0,0,0,12,0,12,0,42.47583679948002,,,,,,,,,,,,42.45974679943174,42.47583679948002,0.00011899974197149277,42.47583679948002,42.47583679948002,42.676233099773526,42.95988689921796,42.95988689921796,42.95988689921796,42.97586919926107,43.394098399206996,0.5,normal,0.43397710006684065,[-0.04259259259259259],[0.2611111111111111],[1],[0],[0],[0.9339771000668406],43.39430739916861,43.40983019955456,43.71022509969771,44.64484059996903,,,,,,,,,,Bradley,001,2024-11-13_10h15.45.124,Foreperiod_task,2024.2.1post4,59.96832464331937,2024-11-13 10h15.54.717882 -0800,
13,0,13,[-0.04259259259259259],[0.2611111111111111],[1],[0],[0],[2.269014399498701],,,,0,0,0,0,13,0,13,0,44.661019099876285,,,,,,,,,,,,44.64495819993317,44.661019099876285,0.00012100022286176682,44.661019099876285,44.661019099876285,44.86161519959569,46.646333899348974,46.646333899348974,46.646333899348974,46.66292119957507,46.91462069936097,2,normal,0.2690143994987011,[-0.04259259259259259],[0.2611111111111111],[1],[0],[0],[2.269014399498701],46.91508549917489,46.93016089964658,47.23035299964249,48.464489999227226,,,,,,,,,,Bradley,001,2024-11-13_10h15.45.124,Foreperiod_task,2024.2.1post4,59.96832464331937,2024-11-13 10h15.54.717882 -0800,
14,0,14,[-0.04351851851851852],[0.25462962962962965],[1],[0],[0],[1.7689578998833895],,,,0,0,0,0,14,0,14,0,48.48105200007558,,,,,,,,,,,,48.46460299938917,48.48105200007558,0.00011690054088830948,48.48105200007558,48.48105200007558,48.680990799330175,49.965416299179196,49.965416299179196,49.965416299179196,49.982398599386215,50.23419940005988,1.4875624096781672,surprise,0.28139549020522225,[-0.04351851851851852],[0.25462962962962965],[1],[0],[0],[1.7689578998833895],50.234595499932766,50.24947169981897,50.5498122991994,51.817233899608254,,,,,,,,,,Bradley,001,2024-11-13_10h15.45.124,Foreperiod_task,2024.2.1post4,59.96832464331937,2024-11-13 10h15.54.717882 -0800,
15,0,15,[-0.044444444444444446],[0.25462962962962965],[1],[0],[0],[0.9173049004748464],,,,0,0,0,0,15,0,15,0,51.8336346000433,,,,,,,,,,,,51.81733759958297,51.8336346000433,0.00010729953646659851,51.8336346000433,51.8336346000433,52.03428940009326,52.317553599365056,52.317553599365056,52.317553599365056,52.33413399942219,52.734991299919784,0.5,normal,0.41730490047484636,[-0.044444444444444446],[0.25462962962962965],[1],[0],[0],[0.9173049004748464],52.735244899988174,52.75114529952407,53.051274799741805,54.06940929964185,,,,,,,,,,Bradley,001,2024-11-13_10h15.45.124,Foreperiod_task,2024.2.1post4,59.96832464331937,2024-11-13 10h15.54.717882 -0800,
16,0,16,[-0.044444444444444446],[0.25462962962962965],[1],[0],[0],[0.9518501991406083],,,,0,0,0,0,16,0,16,0,54.085503299720585,,,,,,,,,,,,54.069526799954474,54.085503299720585,0.00012109987437725067,54.085503299720585,54.085503299720585,54.28590489923954,54.5692197997123,54.5692197997123,54.5692197997123,54.58603309933096,55.02208349946886,0.5,normal,0.4518501991406083,[-0.044444444444444446],[0.25462962962962965],[1],[0],[0],[0.9518501991406083],55.02257649973035,55.03694289922714,55.33656119927764,56.454931600019336,,,,,,,,,,Bradley,001,2024-11-13_10h15.45.124,Foreperiod_task,2024.2.1post4,59.96832464331937,2024-11-13 10h15.54.717882 -0800,
17,0,17,[-0.044444444444444446],[0.25462962962962965],[1],[0],[0],[0.7677515000104904],,,,0,0,0,0,17,0,17,0,56.47082199994475,,,,,,,,,,,,56.45505219977349,56.47082199994475,0.0001263003796339035,56.47082199994475,56.47082199994475,56.670960299670696,56.95518280006945,56.95518280006945,56.95518280006945,56.971338799223304,57.223604399710894,0.5,normal,0.2677515000104904,[-0.044444444444444446],[0.25462962962962965],[1],[0],[0],[0.7677515000104904],57.2240887992084,57.23875689972192,57.53923109918833,58.84105649963021,,,,,,,,,,Bradley,001,2024-11-13_10h15.45.124,Foreperiod_task,2024.2.1post4,59.96832464331937,2024-11-13 10h15.54.717882 -0800,
18,0,18,[-0.044444444444444446],[0.25462962962962965],[1],[0],[0],[2.250894100405276],,,,0,0,0,0,18,0,18,0,58.85670979972929,,,,,,,,,,,,58.8413618998602,58.85670979972929,0.00031690020114183426,58.85670979972929,58.85670979972929,59.05672159977257,60.842103499919176,60.842103499919176,60.842103499919176,60.85854689963162,61.092995199374855,2,normal,0.2508941004052758,[-0.044444444444444446],[0.25462962962962965],[1],[0],[0],[2.250894100405276],61.09347489941865,61.10848109982908,61.40886349976063,62.69406279921532,,,,,,,,,,Bradley,001,2024-11-13_10h15.45.124,Foreperiod_task,2024.2.1post4,59.96832464331937,2024-11-13 10h15.54.717882 -0800,
19,0,19,[-0.05185185185185185],[0.2574074074074074],[1],[0],[0],[0.8002606006339192],,,,0,0,0,0,19,0,19,0,62.71011759992689,,,,,,,,,,,,62.69432479981333,62.71011759992689,0.0002749999985098839,62.71011759992689,62.71011759992689,62.910159999504685,63.19382999930531,63.19382999930531,63.19382999930531,63.21050009969622,63.495389899238944,0.5,normal,0.30026060063391924,[-0.05185185185185185],[0.2574074074074074],[1],[0],[0],[0.8002606006339192],63.49585169926286,63.51068739965558,63.81076609995216,65.09563319943845,,,,,,,,,,Bradley,001,2024-11-13_10h15.45.124,Foreperiod_task,2024.2.1post4,59.96832464331937,2024-11-13 10h15.54.717882 -0800,
20,0,20,[-0.0787037037037037],[0.287962962962963],[1],[0],[0],[2.2686556996777654],,,,0,0,0,0,20,0,20,0,65.11177199985832,,,,,,,,,,,,65.0958886994049,65.11177199985832,0.0002562999725341797,65.11177199985832,65.11177199985832,65.31163069978356,67.09712449926883,67.09712449926883,67.09712449926883,67.11358959972858,67.36530029959977,2,normal,0.26865569967776537,[-0.0787037037037037],[0.287962962962963],[1],[0],[0],[2.2686556996777654],67.36569339968264,67.38067119941115,67.68088729958981,68.96573729999363,,,,,,,,,,Bradley,001,2024-11-13_10h15.45.124,Foreperiod_task,2024.2.1post4,59.96832464331937,2024-11-13 10h15.54.717882 -0800,
21,0,21,[-0.06666666666666667],[0.29259259259259257],[1],[0],[0],[2.2354386998340487],,,,0,0,0,0,21,0,21,0,68.9818322993815,,,,,,,,,,,,68.96606579981744,68.9818322993815,0.00034059956669807434,68.9818322993815,68.9818322993815,69.18216689955443,70.96687049977481,70.96687049977481,70.96687049977481,70.9835112998262,71.2023022994399,2,normal,0.23543869983404875,[-0.06666666666666667],[0.29259259259259257],[1],[0],[0],[2.2354386998340487],71.20276059955359,71.21714939922094,71.51727789919823,72.71904429979622,,,,,,,,,,Bradley,001,2024-11-13_10h15.45.124,Foreperiod_task,2024.2.1post4,59.96832464331937,2024-11-13 10h15.54.717882 -0800,
22,0,22,[-0.06481481481481481],[0.2916666666666667],[1],[0],[0],[2.2514262003824115],,,,0,0,0,0,22,0,22,0,72.73511599935591,,,,,,,,,,,,72.71933929994702,72.73511599935591,0.00030609965324401855,72.73511599935591,72.73511599935591,72.93530429992825,74.71970449946821,74.71970449946821,74.71970449946821,74.73595649935305,74.9715810995549,2,normal,0.2514262003824115,[-0.06481481481481481],[0.2916666666666667],[1],[0],[0],[2.2514262003824115],74.97199149988592,74.98679049964994,75.287015799433,76.6223218999803,,,,,,,,,,Bradley,001,2024-11-13_10h15.45.124,Foreperiod_task,2024.2.1post4,59.96832464331937,2024-11-13 10h15.54.717882 -0800,
23,0,23,[-0.007407407407407408],[0.30925925925925923],[1],[0],[0],[1.35069250036031],,,,0,0,0,0,23,0,23,0,76.63823799975216,,,,,,,,,,,,76.62260759994388,76.63823799975216,0.0002733999863266945,76.63823799975216,76.63823799975216,76.83843449968845,77.6890481999144,77.6890481999144,77.6890481999144,77.70578489918262,77.9740995997563,1.053081002982237,surprise,0.297611497378073,[-0.007407407407407408],[0.30925925925925923],[1],[0],[0],[1.35069250036031],77.97456979937851,77.98937459941953,78.2896801000461,79.59145229961723,,,,,,,,,,Bradley,001,2024-11-13_10h15.45.124,Foreperiod_task,2024.2.1post4,59.96832464331937,2024-11-13 10h15.54.717882 -0800,
24,0,24,[-0.011111111111111112],[0.3074074074074074],[1],[0],[0],[0.9836456999182701],,,,0,0,0,0,24,0,24,0,79.60752169974148,,,,,,,,,,,,79.59175909962505,79.60752169974148,0.0003200005739927292,79.60752169974148,79.60752169974148,79.807304199785,80.0913647999987,80.0913647999987,80.0913647999987,80.10785780008882,80.57629409991205,0.5,normal,0.4836456999182701,[-0.011111111111111112],[0.3074074074074074],[1],[0],[0],[0.9836456999182701],80.57668769918382,80.59147339966148,80.89189899992198,81.92658879980445,,,,,,,,,,Bradley,001,2024-11-13_10h15.45.124,Foreperiod_task,2024.2.1post4,59.96832464331937,2024-11-13 10h15.54.717882 -0800,
25,0,25,[-0.03333333333333333],[0.3212962962962963],[1],[0],[0],[2.2504091998562217],,,,0,0,0,0,25,0,25,0,81.9426493998617,,,,,,,,,,,,81.92689980007708,81.9426493998617,0.0003260001540184021,81.9426493998617,81.9426493998617,82.14314209949225,83.92758099921048,83.92758099921048,83.92758099921048,83.9443183997646,84.17771739978343,2,normal,0.2504091998562217,[-0.03333333333333333],[0.3212962962962963],[1],[0],[0],[2.2504091998562217],84.17788299918175,84.1945452997461,84.49475919920951,85.44613579940051,,,,,,,,,,Bradley,001,2024-11-13_10h15.45.124,Foreperiod_task,2024.2.1post4,59.96832464331937,2024-11-13 10h15.54.717882 -0800,
26,0,26,[-0.03333333333333333],[0.3212962962962963],[1],[0],[0],[0.866979400627315],,,,0,0,0,0,26,0,26,0,85.46225019916892,,,,,,,,,,,,85.4465276999399,85.46225019916892,0.0004044007509946823,85.46225019916892,85.46225019916892,85.66196659952402,85.94595889933407,85.94595889933407,85.94595889933407,85.96258859988302,86.31419689953327,0.5,normal,0.36697940062731504,[-0.03333333333333333],[0.3212962962962963],[1],[0],[0],[0.866979400627315],86.31459870003164,86.32963449973613,86.62981469929218,87.79837109986693,,,,,,,,,,Bradley,001,2024-11-13_10h15.45.124,Foreperiod_task,2024.2.1post4,59.96832464331937,2024-11-13 10h15.54.717882 -0800,
27,0,27,[-0.03333333333333333],[0.3212962962962963],[1],[0],[0],[2.268172400072217],,,,0,0,0,0,27,0,27,0,87.81412739958614,,,,,,,,,,,,87.79865069966763,87.81412739958614,0.00028639938682317734,87.81412739958614,87.81412739958614,88.01439459994435,89.79940099921077,89.79940099921077,89.79940099921077,89.8159946994856,90.06752259936184,2,normal,0.268172400072217,[-0.03333333333333333],[0.3212962962962963],[1],[0],[0],[2.268172400072217],90.06791399978101,90.08275990001857,90.38343809917569,91.40148669946939,,,,,,,,,,Bradley,001,2024-11-13_10h15.45.124,Foreperiod_task,2024.2.1post4,59.96832464331937,2024-11-13 10h15.54.717882 -0800,
28,0,28,[-0.03333333333333333],[0.3212962962962963],[1],[0],[0],[2.267753499560058],,,,0,0,0,0,28,0,28,0,91.41743689961731,,,,,,,,,,,,91.40177269931883,91.41743689961731,0.00029029976576566696,91.41743689961731,91.41743689961731,91.61761949956417,93.40207649953663,93.40207649953663,93.40207649953663,93.41859679948539,93.67023679986596,2,normal,0.2677534995600581,[-0.03333333333333333],[0.3212962962962963],[1],[0],[0],[2.267753499560058],93.67060779966414,93.68576969951391,93.98576509952545,95.1375816995278,,,,,,,,,,Bradley,001,2024-11-13_10h15.45.124,Foreperiod_task,2024.2.1post4,59.96832464331937,2024-11-13 10h15.54.717882 -0800,
29,0,29,[-0.03518518518518519],[0.3212962962962963],[1],[0],[0],[0.932443699799478],,,,0,0,0,0,29,0,29,0,95.15373570006341,,,,,,,,,,,,95.13785239960998,95.15373570006341,0.00028590019792318344,95.15373570006341,95.15373570006341,95.35387019999325,95.63754399958998,95.63754399958998,95.63754399958998,95.65395289938897,96.07076059933752,0.5,normal,0.43244369979947805,[-0.03518518518518519],[0.3212962962962963],[1],[0],[0],[0.932443699799478],96.0710032992065,96.08727739937603,96.38819389976561,97.42250059917569,,,,,,,,,,Bradley,001,2024-11-13_10h15.45.124,Foreperiod_task,2024.2.1post4,59.96832464331937,2024-11-13 10h15.54.717882 -0800,
30,0,30,[-0.03518518518518519],[0.3212962962962963],[1],[0],[0],[2.2521468000486493],,,,0,0,0,0,30,0,30,0,97.43883269932121,,,,,,,,,,,,97.4227692997083,97.43883269932121,0.00030639953911304474,97.43883269932121,97.43883269932121,97.6391127994284,99.42386719956994,99.42386719956994,99.42386719956994,99.44050269946456,99.67569659929723,2,normal,0.2521468000486493,[-0.03518518518518519],[0.3212962962962963],[1],[0],[0],[2.2521468000486493],99.67610169947147,99.69062760006636,99.99120629951358,100.99268670007586,,,,,,,,,,Bradley,001,2024-11-13_10h15.45.124,Foreperiod_task,2024.2.1post4,59.96832464331937,2024-11-13 10h15.54.717882 -0800,
31,0,31,[-0.03518518518518519],[0.3212962962962963],[1],[0],[0],[0.833543200045824],,,,0,0,0,0,31,0,31,0,101.0085742995143,,,,,,,,,,,,100.99299350008368,101.0085742995143,0.0003129001706838608,101.0085742995143,101.0085742995143,101.20909149944782,101.49220139998943,101.49220139998943,101.49220139998943,101.5090569993481,101.82732510007918,0.5,normal,0.33354320004582405,[-0.03518518518518519],[0.3212962962962963],[1],[0],[0],[0.833543200045824],101.8277280991897,101.84276029933244,102.14255459979177,103.47789539955556,,,,,,,,,,Bradley,001,2024-11-13_10h15.45.124,Foreperiod_task,2024.2.1post4,59.96832464331937,2024-11-13 10h15.54.717882 -0800,
32,0,32,[-0.03518518518518519],[0.3212962962962963],[1],[0],[0],[0.783458299934864],,,,0,0,0,0,32,0,32,0,103.49410829972476,,,,,,,,,,,,103.47817279957235,103.49410829972476,0.0002921000123023987,103.49410829972476,103.49410829972476,103.69401699956506,103.97766849957407,103.97766849957407,103.97766849957407,103.99424779973924,104.2622185992077,0.5,normal,0.28345829993486404,[-0.03518518518518519],[0.3212962962962963],[1],[0],[0],[0.783458299934864],104.26248869951814,104.27791419997811,104.57813899964094,105.69627749919891,,,,,,,,,,Bradley,001,2024-11-13_10h15.45.124,Foreperiod_task,2024.2.1post4,59.96832464331937,2024-11-13 10h15.54.717882 -0800,
33,0,33,[-0.03518518518518519],[0.3212962962962963],[1],[0],[0],[2.235282000154257],,,,0,0,0,0,33,0,33,0,105.71240950003266,,,,,,,,,,,,105.6965034995228,105.71240950003266,0.00023720040917396545,105.71240950003266,105.71240950003266,105.91210789978504,107.69748999923468,107.69748999923468,107.69748999923468,107.71406039968133,107.93272179923952,2,normal,0.23528200015425682,[-0.03518518518518519],[0.3212962962962963],[1],[0],[0],[2.235282000154257],107.9333371995017,107.94780379999429,108.24802949931473,109.33278999943286,,,,,,,,,,Bradley,001,2024-11-13_10h15.45.124,Foreperiod_task,2024.2.1post4,59.96832464331937,2024-11-13 10h15.54.717882 -0800,
34,0,34,[-0.03518518518518519],[0.3212962962962963],[1],[0],[0],[0.8505000993609428],,,,0,0,0,0,34,0,34,0,109.34885569941252,,,,,,,,,,,,109.33303109928966,109.34885569941252,0.0002528000622987747,109.34885569941252,109.34885569941252,109.54893309995532,109.83261469937861,109.83261469937861,109.83261469937861,109.8492871997878,110.18455929961056,0.5,normal,0.35050009936094284,[-0.03518518518518519],[0.3212962962962963],[1],[0],[0],[0.8505000993609428],110.18506489973515,110.19965069927275,110.49967269971967,111.80143499933183,,,,,,,,,,Bradley,001,2024-11-13_10h15.45.124,Foreperiod_task,2024.2.1post4,59.96832464331937,2024-11-13 10h15.54.717882 -0800,
35,0,35,[-0.03518518518518519],[0.3212962962962963],[1],[0],[0],[0.7670154999941587],,,,0,0,0,0,35,0,35,0,111.81745919957757,,,,,,,,,,,,111.80170639976859,111.81745919957757,0.0002899998798966408,111.81745919957757,111.81745919957757,112.01773520000279,112.30127599928528,112.30127599928528,112.30127599928528,112.31793530005962,112.56944369990379,0.5,normal,0.26701549999415874,[-0.03518518518518519],[0.3212962962962963],[1],[0],[0],[0.7670154999941587],112.56985719967633,112.5848034992814,112.88503509946167,114.13662199955434,,,,,,,,,,Bradley,001,2024-11-13_10h15.45.124,Foreperiod_task,2024.2.1post4,59.96832464331937,2024-11-13 10h15.54.717882 -0800,
36,0,36,[-0.03425925925925926],[0.32222222222222224],[1],[0],[0],[0.7838153000921011],,,,0,0,0,0,36,0,36,0,114.15256669931114,,,,,,,,,,,,114.13683049939573,114.15256669931114,0.00021460000425577164,114.15256669931114,114.15256669931114,114.35292840003967,114.63646329939365,114.63646329939365,114.63646329939365,114.65318669937551,114.92141579929739,0.5,normal,0.2838153000921011,[-0.03425925925925926],[0.32222222222222224],[1],[0],[0],[0.7838153000921011],114.92186149954796,114.9367470992729,115.23722719959915,116.23804209940135,,,,,,,,,,Bradley,001,2024-11-13_10h15.45.124,Foreperiod_task,2024.2.1post4,59.96832464331937,2024-11-13 10h15.54.717882 -0800,
37,0,37,[-0.03425925925925926],[0.32222222222222224],[1],[0],[0],[0.8001450002193451],,,,0,0,0,0,37,0,37,0,116.25461649987847,,,,,,,,,,,,116.2382737994194,116.25461649987847,0.00024139974266290665,116.25461649987847,116.25461649987847,116.45456639956683,116.73825109936297,116.73825109936297,116.73825109936297,116.75496719963849,117.03892780002207,0.5,normal,0.3001450002193451,[-0.03425925925925926],[0.32222222222222224],[1],[0],[0],[0.8001450002193451],117.0391974998638,117.05516619980335,117.35535629931837,118.62377539929003,,,,,,,,,,Bradley,001,2024-11-13_10h15.45.124,Foreperiod_task,2024.2.1post4,59.96832464331937,2024-11-13 10h15.54.717882 -0800,
38,0,38,[-0.03425925925925926],[0.32222222222222224],[1],[0],[0],[0.7671386003494263],,,,0,0,0,0,38,0,38,0,118.63989029917866,,,,,,,,,,,,118.62403989955783,118.63989029917866,0.00027740001678466797,118.63989029917866,118.63989029917866,118.8400171995163,119.12389839999378,119.12389839999378,119.12389839999378,119.14024339988828,119.39191180001944,0.5,normal,0.26713860034942627,[-0.03425925925925926],[0.32222222222222224],[1],[0],[0],[0.7671386003494263],119.392288999632,119.4073176998645,119.70772899966687,121.05914529971778,,,,,,,,,,Bradley,001,2024-11-13_10h15.45.124,Foreperiod_task,2024.2.1post4,59.96832464331937,2024-11-13 10h15.54.717882 -0800,
39,0,39,[-0.03888888888888889],[0.32685185185185184],[1],[0],[0],[0.7173477998003364],,,,0,0,0,0,39,0,39,0,121.0751915993169,,,,,,,,,,,,121.05942739918828,121.0751915993169,0.00029610004276037216,121.0751915993169,121.0751915993169,121.27531719952822,121.55886649992317,121.55886649992317,121.55886649992317,121.57564679998904,121.77762759942561,0.5,normal,0.21734779980033636,[-0.03888888888888889],[0.32685185185185184],[1],[0],[0],[0.7173477998003364],121.778032399714,121.79245319962502,122.09175870008767,123.29432759992778,,,,,,,,,,Bradley,001,2024-11-13_10h15.45.124,Foreperiod_task,2024.2.1post4,59.96832464331937,2024-11-13 10h15.54.717882 -0800,
40,0,40,[-0.041666666666666664],[0.32407407407407407],[1],[0],[0],[1.5175425000488758],,,,0,0,0,0,40,0,40,0,123.31049429997802,,,,,,,,,,,,123.29465649928898,123.31049429997802,0.00033960025757551193,123.31049429997802,123.31049429997802,123.51030569989234,124.5784676996991,124.5784676996991,124.5784676996991,124.59494029916823,124.81291649956256,1.2747411999973153,surprise,0.24280130005156053,[-0.041666666666666664],[0.32407407407407407],[1],[0],[0],[1.5175425000488758],124.81337269954383,124.82837409991771,125.12851499952376,126.29595399927348,,,,,,,,,,Bradley,001,2024-11-13_10h15.45.124,Foreperiod_task,2024.2.1post4,59.96832464331937,2024-11-13 10h15.54.717882 -0800,
41,0,41,[-0.041666666666666664],[0.32407407407407407],[1],[0],[0],[0.7850991999730468],,,,0,0,0,0,41,0,41,0,126.31224079988897,,,,,,,,,,,,126.29607219994068,126.31224079988897,0.00012089964002370834,126.31224079988897,126.31224079988897,126.51323889940977,126.79671869985759,126.79671869985759,126.79671869985759,126.81337509956211,127.08181349933147,0.5,normal,0.2850991999730468,[-0.041666666666666664],[0.32407407407407407],[1],[0],[0],[0.7850991999730468],127.08216319978237,127.09623589925468,127.39678339939564,128.61537369992584,,,,,,,,,,Bradley,001,2024-11-13_10h15.45.124,Foreperiod_task,2024.2.1post4,59.96832464331937,2024-11-13 10h15.54.717882 -0800,
42,0,42,[-0.040740740740740744],[0.325],[1],[0],[0],[0.782634699717164],,,,0,0,0,0,42,0,42,0,128.63139100000262,,,,,,,,,,,,128.61565509997308,128.63139100000262,0.00029770005494356155,128.63139100000262,128.63139100000262,128.83159909956157,129.11449790000916,129.11449790000916,129.11449790000916,129.13245749939233,129.3986961999908,0.5,normal,0.28263469971716404,[-0.040740740740740744],[0.325],[1],[0],[0],[0.782634699717164],129.3988774996251,129.41485049948096,129.714924399741,131.01766289956868,,,,,,,,,,Bradley,001,2024-11-13_10h15.45.124,Foreperiod_task,2024.2.1post4,59.96832464331937,2024-11-13 10h15.54.717882 -0800,
43,0,43,[-0.03888888888888889],[0.325],[1],[0],[0],[0.7499946998432279],,,,0,0,0,0,43,0,43,0,131.03343409951776,,,,,,,,,,,,131.01795769948512,131.03343409951776,0.00030579976737499237,131.03343409951776,131.03343409951776,131.23418939951807,131.51733279973269,131.51733279973269,131.51733279973269,131.5339490994811,131.76867389958352,0.5,normal,0.24999469984322786,[-0.03888888888888889],[0.325],[1],[0],[0],[0.7499946998432279],131.7690540999174,131.7841508993879,132.0843174997717,133.35233369935304,,,,,,,,,,Bradley,001,2024-11-13_10h15.45.124,Foreperiod_task,2024.2.1post4,59.96832464331937,2024-11-13 10h15.54.717882 -0800,
44,0,44,[-0.03888888888888889],[0.325],[1],[0],[0],[2.2523450003936887],,,,0,0,0,0,44,0,44,0,133.36858809925616,,,,,,,,,,,,133.3524345997721,133.36858809925616,0.0001042000949382782,133.36858809925616,133.36858809925616,133.56943350005895,135.35378489922732,135.35378489922732,135.35378489922732,135.3703328995034,135.60549689922482,2,normal,0.2523450003936887,[-0.03888888888888889],[0.325],[1],[0],[0],[2.2523450003936887],135.60590610001236,135.62070409953594,135.9209536993876,137.17258269991726,,,,,,,,,,Bradley,001,2024-11-13_10h15.45.124,Foreperiod_task,2024.2.1post4,59.96832464331937,2024-11-13 10h15.54.717882 -0800,
45,0,45,[-0.03888888888888889],[0.325],[1],[0],[0],[2.351664500311017],,,,0,0,0,0,45,0,45,0,137.18863779958338,,,,,,,,,,,,137.17285599932075,137.18863779958338,0.00028900057077407837,137.18863779958338,137.18863779958338,137.38863939978182,139.17365229967982,139.17365229967982,139.17365229967982,139.19082869961858,139.52530859969556,2,normal,0.35166450031101704,[-0.03888888888888889],[0.325],[1],[0],[0],[2.351664500311017],139.52571929991245,139.54048949945718,139.84098610002548,141.19260329939425,,,,,,,,,,Bradley,001,2024-11-13_10h15.45.124,Foreperiod_task,2024.2.1post4,59.96832464331937,2024-11-13 10h15.54.717882 -0800,
46,0,46,[-0.03796296296296296],[0.325],[1],[0],[0],[0.783590099774301],,,,0,0,0,0,46,0,46,0,141.20856389962137,,,,,,,,,,,,141.1928830994293,141.20856389962137,0.0002928003668785095,141.20856389962137,141.20856389962137,141.40886029973626,141.69195019919425,141.69195019919425,141.69195019919425,141.70862279925495,141.97725059930235,0.5,normal,0.28359009977430105,[-0.03796296296296296],[0.325],[1],[0],[0],[0.783590099774301],141.97766379918903,141.992632499896,142.29287759959698,143.66115819942206,,,,,,,,,,Bradley,001,2024-11-13_10h15.45.124,Foreperiod_task,2024.2.1post4,59.96832464331937,2024-11-13 10h15.54.717882 -0800,
47,0,47,[-0.03611111111111111],[0.32407407407407407],[1],[0],[0],[2.2350501995533705],,,,0,0,0,0,47,0,47,0,143.67733469977975,,,,,,,,,,,,143.6614152994007,143.67733469977975,0.0002707000821828842,143.67733469977975,143.67733469977975,143.87780459970236,145.6626901999116,145.6626901999116,145.6626901999116,145.6782346991822,145.89721009973437,2,normal,0.23505019955337048,[-0.03611111111111111],[0.32407407407407407],[1],[0],[0],[2.2350501995533705],145.89762749988586,145.9125857995823,146.21270819939673,147.13074370007962,,,,,,,,,,Bradley,001,2024-11-13_10h15.45.124,Foreperiod_task,2024.2.1post4,59.96832464331937,2024-11-13 10h15.54.717882 -0800,
48,0,48,[-0.03611111111111111],[0.32037037037037036],[1],[0],[0],[0.8839849000796676],,,,0,0,0,0,48,0,48,0,147.14699689950794,,,,,,,,,,,,147.13094639964402,147.14699689950794,0.00020750053226947784,147.14699689950794,147.14699689950794,147.34732019994408,147.63062279950827,147.63062279950827,147.63062279950827,147.64722089935094,148.0155092999339,0.5,normal,0.38398490007966757,[-0.03611111111111111],[0.32037037037037036],[1],[0],[0],[0.8839849000796676],148.01590219978243,148.03091540001333,148.33119249995798,149.66637909971178,,,,,,,,,,Bradley,001,2024-11-13_10h15.45.124,Foreperiod_task,2024.2.1post4,59.96832464331937,2024-11-13 10h15.54.717882 -0800,
49,0,49,[-0.03425925925925926],[0.32407407407407407],[1],[0],[0],[0.7667723996564746],,,,0,0,0,0,49,0,49,0,149.6817004000768,,,,,,,,,,,,149.66668069921434,149.6817004000768,0.00030869990587234497,149.6817004000768,149.6817004000768,149.8825279995799,150.16614529956132,150.16614529956132,150.16614529956132,150.1827968992293,150.43423159979284,0.5,normal,0.2667723996564746,[-0.03425925925925926],[0.32407407407407407],[1],[0],[0],[0.7667723996564746],150.43469680007547,150.4495893996209,150.74984449986368,151.76810159999877,,,,,,,,,,Bradley,001,2024-11-13_10h15.45.124,Foreperiod_task,2024.2.1post4,59.96832464331937,2024-11-13 10h15.54.717882 -0800,
50,0,50,[-0.03425925925925926],[0.32407407407407407],[1],[0],[0],[1.5842928998172283],,,,0,0,0,0,50,0,50,0,151.78400240000337,,,,,,,,,,,,151.76837929990143,151.78400240000337,0.0002888999879360199,151.78400240000337,151.78400240000337,151.98427690006793,153.03534939978272,153.03534939978272,153.03534939978272,153.05193449929357,153.35362369939685,1.253242116572564,surprise,0.3310507832446643,[-0.03425925925925926],[0.32407407407407407],[1],[0],[0],[1.5842928998172283],153.35417989920825,153.36869199946523,153.66883499920368,154.65380739979446,,,,,,,,,,Bradley,001,2024-11-13_10h15.45.124,Foreperiod_task,2024.2.1post4,59.96832464331937,2024-11-13 10h15.54.717882 -0800,
51,0,51,[-0.03425925925925926],[0.32407407407407407],[1],[0],[0],[2.2347406996414065],,,,0,0,0,0,51,0,51,0,154.6698286999017,,,,,,,,,,,,154.65409810002893,154.6698286999017,0.00030929967761039734,154.6698286999017,154.6698286999017,154.87003629934043,156.65476009994745,156.65476009994745,156.65476009994745,156.67120549920946,156.88973609916866,2,normal,0.23474069964140654,[-0.03425925925925926],[0.32407407407407407],[1],[0],[0],[2.2347406996414065],156.89020949974656,156.90498830005527,157.20556209981441,158.4070397997275,,,,,,,,,,Bradley,001,2024-11-13_10h15.45.124,Foreperiod_task,2024.2.1post4,59.96832464331937,2024-11-13 10h15.54.717882 -0800,
52,0,52,[-0.03425925925925926],[0.32407407407407407],[1],[0],[0],[1.0345096001401544],,,,0,0,0,0,52,0,52,0,158.4228423992172,,,,,,,,,,,,158.40730549953878,158.4228423992172,0.0002781003713607788,158.4228423992172,158.4228423992172,158.623107499443,158.90676550008357,158.90676550008357,158.90676550008357,158.92341849952936,159.44260329939425,0.5,normal,0.5345096001401544,[-0.03425925925925926],[0.32407407407407407],[1],[0],[0],[1.0345096001401544],159.44309879932553,159.45711049996316,159.75762879941612,160.94239489920437,,,,,,,,,,Bradley,001,2024-11-13_10h15.45.124,Foreperiod_task,2024.2.1post4,59.96832464331937,2024-11-13 10h15.54.717882 -0800,
53,0,53,[-0.03425925925925926],[0.32407407407407407],[1],[0],[0],[2.2514863004907966],,,,0,0,0,0,53,0,53,0,160.95838969945908,,,,,,,,,,,,160.94266769941896,160.95838969945908,0.0003150003030896187,160.95838969945908,160.95838969945908,161.1584672993049,162.9428980993107,162.9428980993107,162.9428980993107,162.96007999964058,163.1949694994837,2,normal,0.25148630049079657,[-0.03425925925925926],[0.32407407407407407],[1],[0],[0],[2.2514863004907966],163.1954032992944,163.21031129918993,163.51059249974787,164.7286489000544,,,,,,,,,,Bradley,001,2024-11-13_10h15.45.124,Foreperiod_task,2024.2.1post4,59.96832464331937,2024-11-13 10h15.54.717882 -0800,
54,0,54,[-0.03425925925925926],[0.32407407407407407],[1],[0],[0],[2.2350570000708103],,,,0,0,0,0,54,0,54,0,164.7447841996327,,,,,,,,,,,,164.72891369927675,164.7447841996327,0.0002785995602607727,164.7447841996327,164.7447841996327,164.94497399963439,166.73006229940802,166.73006229940802,166.73006229940802,166.7465964993462,166.96464809961617,2,normal,0.23505700007081032,[-0.03425925925925926],[0.32407407407407407],[1],[0],[0],[2.2350570000708103],166.96503870002925,166.97999469935894,167.28038289956748,168.43203820008785,,,,,,,,,,Bradley,001,2024-11-13_10h15.45.124,Foreperiod_task,2024.2.1post4,59.96832464331937,2024-11-13 10h15.54.717882 -0800,
55,0,55,[-0.03425925925925926],[0.32407407407407407],[1],[0],[0],[0.8166581997647882],,,,0,0,0,0,55,0,55,0,168.44789819978178,,,,,,,,,,,,168.43232159968466,168.44789819978178,0.00029499921947717667,168.44789819978178,168.44789819978178,168.64808439929038,168.9318637996912,168.9318637996912,168.9318637996912,168.948592399247,169.249374399893,0.5,normal,0.31665819976478815,[-0.03425925925925926],[0.32407407407407407],[1],[0],[0],[0.8166581997647882],169.24963199999183,169.26483580004424,169.56527739949524,170.65059299953282,,,,,,,,,,Bradley,001,2024-11-13_10h15.45.124,Foreperiod_task,2024.2.1post4,59.96832464331937,2024-11-13 10h15.54.717882 -0800,
56,0,56,[-0.03425925925925926],[0.32407407407407407],[1],[0],[0],[2.251325799152255],,,,0,0,0,0,56,0,56,0,170.66640079952776,,,,,,,,,,,,170.65087969973683,170.66640079952776,0.0002922993153333664,170.66640079952776,170.66640079952776,170.86659980006516,172.65158689953387,172.65158689953387,172.65158689953387,172.66818849928677,172.9029128998518,2,normal,0.25132579915225506,[-0.03425925925925926],[0.32407407407407407],[1],[0],[0],[2.251325799152255],172.90338519960642,172.91833420004696,173.2187955994159,174.48690999951214,,,,,,,,,,Bradley,001,2024-11-13_10h15.45.124,Foreperiod_task,2024.2.1post4,59.96832464331937,2024-11-13 10h15.54.717882 -0800,
57,0,57,[-0.03425925925925926],[0.32407407407407407],[1],[0],[0],[2.2350298995152116],,,,0,0,0,0,57,0,57,0,174.5028987992555,,,,,,,,,,,,174.48718499951065,174.5028987992555,0.0002907002344727516,174.5028987992555,174.5028987992555,174.70305239968002,176.48800039943308,176.48800039943308,176.48800039943308,176.50458680000156,176.72303009964526,2,normal,0.23502989951521158,[-0.03425925925925926],[0.32407407407407407],[1],[0],[0],[2.2350298995152116],176.72345679998398,176.73817660007626,177.03839609958231,178.37349059991539,,,,,,,,,,Bradley,001,2024-11-13_10h15.45.124,Foreperiod_task,2024.2.1post4,59.96832464331937,2024-11-13 10h15.54.717882 -0800,
58,0,58,[-0.018518518518518517],[0.3277777777777778],[1],[0],[0],[2.2346858996897936],,,,0,0,0,0,58,0,58,0,178.3894650992006,,,,,,,,,,,,178.3737718993798,178.3894650992006,0.0002915002405643463,178.3894650992006,178.3894650992006,178.58968089986593,180.37445240002126,180.37445240002126,180.37445240002126,180.39118519984186,180.609166899696,2,normal,0.2346858996897936,[-0.018518518518518517],[0.3277777777777778],[1],[0],[0],[2.2346858996897936],180.6095384992659,180.62479159981012,180.92493919935077,182.10988250002265,,,,,,,,,,Bradley,001,2024-11-13_10h15.45.124,Foreperiod_task,2024.2.1post4,59.96832464331937,2024-11-13 10h15.54.717882 -0800,
59,0,59,[-0.023148148148148147],[0.31666666666666665],[1],[0],[0],[0.8170376000925899],,,,0,0,0,0,59,0,59,0,182.12593119964004,,,,,,,,,,,,182.1102132992819,182.12593119964004,0.0003463001921772957,182.12593119964004,182.12593119964004,182.32626229990274,182.60975709930062,182.60975709930062,182.60975709930062,182.62644649948925,182.92798159923404,0.5,normal,0.31703760009258986,[-0.023148148148148147],[0.31666666666666665],[1],[0],[0],[0.8170376000925899],182.92837859969586,182.94329659920186,183.24373220000416,184.3285746993497,,,,,,,,,,Bradley,001,2024-11-13_10h15.45.124,Foreperiod_task,2024.2.1post4,59.96832464331937,2024-11-13 10h15.54.717882 -0800,
60,0,60,[-0.02962962962962963],[0.3277777777777778],[1],[0],[0],[0.7664400991052389],,,,0,0,0,0,60,0,60,0,184.34445869922638,,,,,,,,,,,,184.32885649986565,184.34445869922638,0.00029319990426301956,184.34445869922638,184.34445869922638,184.54454689938575,184.82811279967427,184.82811279967427,184.82811279967427,184.84487989917397,185.09601469989866,0.5,normal,0.2664400991052389,[-0.02962962962962963],[0.3277777777777778],[1],[0],[0],[0.7664400991052389],185.0964423995465,185.1117969993502,185.41213719919324,186.78047579992563,,,,,,,,,,Bradley,001,2024-11-13_10h15.45.124,Foreperiod_task,2024.2.1post4,59.96832464331937,2024-11-13 10h15.54.717882 -0800,
61,0,61,[-0.020370370370370372],[0.3277777777777778],[1],[0],[0],[2.25150700006634],,,,0,0,0,0,61,0,61,0,186.7965097995475,,,,,,,,,,,,186.7808061996475,186.7965097995475,0.00034140050411224365,186.7965097995475,186.7965097995475,186.99659150000662,188.78149059973657,188.78149059973657,188.78149059973657,188.79816900007427,189.03302729967982,2,normal,0.25150700006633997,[-0.020370370370370372],[0.3277777777777778],[1],[0],[0],[2.25150700006634],189.0334479995072,189.04838429950178,189.3487339997664,190.3337051998824,,,,,,,,,,Bradley,001,2024-11-13_10h15.45.124,Foreperiod_task,2024.2.1post4,59.96832464331937,2024-11-13 10h15.54.717882 -0800,
62,0,62,[-0.028703703703703703],[0.3472222222222222],[1],[0],[0],[2.2844191007316113],,,,0,0,0,0,62,0,62,0,190.34957079961896,,,,,,,,,,,,190.33404299989343,190.34957079961896,0.00034670066088438034,190.34957079961896,190.34957079961896,190.54954039957374,192.3344494998455,192.3344494998455,192.3344494998455,192.35113079939038,192.61912989988923,2,normal,0.28441910073161125,[-0.028703703703703703],[0.3472222222222222],[1],[0],[0],[2.2844191007316113],192.61951739992946,192.634748599492,192.93507749959826,194.15330599993467,,,,,,,,,,Bradley,001,2024-11-13_10h15.45.124,Foreperiod_task,2024.2.1post4,59.96832464331937,2024-11-13 10h15.54.717882 -0800,
63,0,63,[-0.028703703703703703],[0.3472222222222222],[1],[0],[0],[0.7336946995928884],,,,0,0,0,0,63,0,63,0,194.16933130007237,,,,,,,,,,,,194.15359019953758,194.16933130007237,0.00029109977185726166,194.16933130007237,194.16933130007237,194.36932669952512,194.65299619920552,194.65299619920552,194.65299619920552,194.66968949977309,194.8881077999249,0.5,normal,0.23369469959288836,[-0.028703703703703703],[0.3472222222222222],[1],[0],[0],[0.7336946995928884],194.8885427992791,194.903116799891,195.20318489987403,196.32195239979774,,,,,,,,,,Bradley,001,2024-11-13_10h15.45.124,Foreperiod_task,2024.2.1post4,59.96832464331937,2024-11-13 10h15.54.717882 -0800,
64,0,64,[-0.028703703703703703],[0.3472222222222222],[1],[0],[0],[2.3011007998138666],,,,0,0,0,0,64,0,64,0,196.3377631995827,,,,,,,,,,,,196.3222054000944,196.3377631995827,0.0002659996971487999,196.3377631995827,196.3377631995827,196.53801879938692,198.32281100004911,198.32281100004911,198.32281100004911,198.3394083995372,198.62454949971288,2,normal,0.3011007998138666,[-0.028703703703703703],[0.3472222222222222],[1],[0],[0],[2.3011007998138666],198.62499469984323,198.63970559928566,198.9399595996365,200.30864509940147,,,,,,,,,,Bradley,001,2024-11-13_10h15.45.124,Foreperiod_task,2024.2.1post4,59.96832464331937,2024-11-13 10h15.54.717882 -0800,
65,0,65,[-0.025],[0.3453703703703704],[1],[0],[0],[2.2848129998892546],,,,0,0,0,0,65,0,65,0,200.3244393998757,,,,,,,,,,,,200.30890149995685,200.3244393998757,0.0002699997276067734,200.3244393998757,200.3244393998757,200.52463069930673,202.3091252995655,202.3091252995655,202.3091252995655,202.32615529932082,202.59449439961463,2,normal,0.28481299988925457,[-0.025],[0.3453703703703704],[1],[0],[0],[2.2848129998892546],202.59494899958372,202.6096946997568,202.9099105000496,203.9949324997142,,,,,,,,,,Bradley,001,2024-11-13_10h15.45.124,Foreperiod_task,2024.2.1post4,59.96832464331937,2024-11-13 10h15.54.717882 -0800,
66,0,66,[-0.030555555555555555],[0.3296296296296296],[1],[0],[0],[0.800063100643456],,,,0,0,0,0,66,0,66,0,204.01078809984028,,,,,,,,,,,,203.99521389976144,204.01078809984028,0.0002979002892971039,204.01078809984028,204.01078809984028,204.21004169993103,204.4945588996634,204.4945588996634,204.4945588996634,204.51153439935297,204.7959038997069,0.5,normal,0.300063100643456,[-0.030555555555555555],[0.3296296296296296],[1],[0],[0],[0.800063100643456],204.79623809922487,204.81146559957415,205.111855099909,206.18020970001817,,,,,,,,,,Bradley,001,2024-11-13_10h15.45.124,Foreperiod_task,2024.2.1post4,59.96832464331937,2024-11-13 10h15.54.717882 -0800,
67,0,67,[-0.03333333333333333],[0.3296296296296296],[1],[0],[0],[2.3006345005705953],,,,0,0,0,0,67,0,67,0,206.19614939950407,,,,,,,,,,,,206.1804802995175,206.19614939950407,0.0002854997292160988,206.19614939950407,206.19614939950407,206.39640569966286,208.18101689964533,208.18101689964533,208.18101689964533,208.19775859918445,208.48161839973181,2,normal,0.30063450057059526,[-0.03333333333333333],[0.3296296296296296],[1],[0],[0],[2.3006345005705953],208.48188889957964,208.49787929933518,208.79809209983796,210.1665960000828,,,,,,,,,,Bradley,001,2024-11-13_10h15.45.124,Foreperiod_task,2024.2.1post4,59.96832464331937,2024-11-13 10h15.54.717882 -0800,
68,0,68,[-0.03333333333333333],[0.3296296296296296],[1],[0],[0],[0.8172343000769615],,,,0,0,0,0,68,0,68,0,210.18278279993683,,,,,,,,,,,,210.16688259970397,210.18278279993683,0.00030190031975507736,210.18278279993683,210.18278279993683,210.38281650003046,210.6665781000629,210.6665781000629,210.6665781000629,210.68337009940296,210.98491929937154,0.5,normal,0.3172343000769615,[-0.03333333333333333],[0.3296296296296296],[1],[0],[0],[0.8172343000769615],210.9853064995259,211.0001492993906,211.30044419970363,212.36872589960694,,,,,,,,,,Bradley,001,2024-11-13_10h15.45.124,Foreperiod_task,2024.2.1post4,59.96832464331937,2024-11-13 10h15.54.717882 -0800,
69,0,69,[-0.03333333333333333],[0.3296296296296296],[1],[0],[0],[2.2679051999002695],,,,0,0,0,0,69,0,69,0,212.3847179999575,,,,,,,,,,,,212.36901309993118,212.3847179999575,0.00029780063778162,212.3847179999575,212.3847179999575,212.58472429960966,214.36951689980924,214.36951689980924,214.36951689980924,214.3862247997895,214.6375966994092,2,normal,0.2679051999002695,[-0.03333333333333333],[0.3296296296296296],[1],[0],[0],[2.2679051999002695],214.63791129924357,214.6524060992524,214.9533536992967,216.1887774998322,,,,,,,,,,Bradley,001,2024-11-13_10h15.45.124,Foreperiod_task,2024.2.1post4,59.96832464331937,2024-11-13 10h15.54.717882 -0800,
70,0,70,[-0.025],[0.3277777777777778],[1],[0],[0],[0.7666675997897983],,,,0,0,0,0,70,0,70,0,216.20448369998485,,,,,,,,,,,,216.1890624994412,216.20448369998485,0.00029639992862939835,216.20448369998485,216.20448369998485,216.4045738996938,216.68836019933224,216.68836019933224,216.68836019933224,216.70499509945512,216.95641359966248,0.5,normal,0.26666759978979826,[-0.025],[0.3277777777777778],[1],[0],[0],[0.7666675997897983],216.95674489997327,216.97133599966764,217.2716239998117,218.2566002998501,,,,,,,,,,Bradley,001,2024-11-13_10h15.45.124,Foreperiod_task,2024.2.1post4,59.96832464331937,2024-11-13 10h15.54.717882 -0800,
71,0,71,[-0.019444444444444445],[0.3314814814814815],[1],[0],[0],[0.7843436999246478],,,,0,0,0,0,71,0,71,0,218.2729782992974,,,,,,,,,,,,218.25682029966265,218.2729782992974,0.0002317996695637703,218.2729782992974,218.2729782992974,218.4729053992778,218.7569136992097,218.7569136992097,218.7569136992097,218.77321249991655,219.0418584998697,0.5,normal,0.2843436999246478,[-0.019444444444444445],[0.3314814814814815],[1],[0],[0],[0.7843436999246478],219.04228969942778,219.05754760000855,219.35712989978492,220.3084658998996,,,,,,,,,,Bradley,001,2024-11-13_10h15.45.124,Foreperiod_task,2024.2.1post4,59.96832464331937,2024-11-13 10h15.54.717882 -0800,
72,0,72,[-0.012037037037037037],[0.3388888888888889],[1],[0],[0],[1.5510507998988032],,,,0,0,0,0,72,0,72,0,220.32463479973376,,,,,,,,,,,,220.308735399507,220.32463479973376,0.0002815006300806999,220.32463479973376,220.32463479973376,220.52470189984888,221.59229069948196,221.59229069948196,221.59229069948196,221.6090407995507,221.86057069990784,1.2839339306013093,surprise,0.2671168692974939,[-0.012037037037037037],[0.3388888888888889],[1],[0],[0],[1.5510507998988032],221.86094229947776,221.87586569972336,222.17593199945986,223.51133670005947,,,,,,,,,,Bradley,001,2024-11-13_10h15.45.124,Foreperiod_task,2024.2.1post4,59.96832464331937,2024-11-13 10h15.54.717882 -0800,
73,0,73,[-0.012037037037037037],[0.3388888888888889],[1],[0],[0],[2.2514530001208186],,,,0,0,0,0,73,0,73,0,223.52742699999362,,,,,,,,,,,,223.5115971993655,223.52742699999362,0.0002715000882744789,223.52742699999362,223.52742699999362,223.72749989945441,225.5121988998726,225.5121988998726,225.5121988998726,225.5285564996302,225.7639836994931,2,normal,0.2514530001208186,[-0.012037037037037037],[0.3388888888888889],[1],[0],[0],[2.2514530001208186],225.76444179937243,225.77895479928702,226.07915849983692,227.31491929944605,,,,,,,,,,Bradley,001,2024-11-13_10h15.45.124,Foreperiod_task,2024.2.1post4,59.96832464331937,2024-11-13 10h15.54.717882 -0800,
74,0,74,[-0.012037037037037037],[0.34074074074074073],[1],[0],[0],[2.2670722994953394],,,,0,0,0,0,74,0,74,0,227.3303376995027,,,,,,,,,,,,227.31523519940674,227.3303376995027,0.000323600135743618,227.3303376995027,227.3303376995027,227.53061889950186,229.31519669946283,229.31519669946283,229.31519669946283,229.33189289923757,229.58322709985077,2,normal,0.2670722994953394,[-0.012037037037037037],[0.34074074074074073],[1],[0],[0],[2.2670722994953394],229.58396889921278,229.59905109927058,229.89898389950395,231.050610399805,,,,,,,,,,Bradley,001,2024-11-13_10h15.45.124,Foreperiod_task,2024.2.1post4,59.96832464331937,2024-11-13 10h15.54.717882 -0800,
75,0,75,[-0.012037037037037037],[0.34074074074074073],[1],[0],[0],[2.233924800530076],,,,0,0,0,0,75,0,75,0,231.0667672995478,,,,,,,,,,,,231.05089309997857,231.0667672995478,0.00029060058295726776,231.0667672995478,231.0667672995478,231.26690629962832,233.05176089983433,233.05176089983433,233.05176089983433,233.06844169925898,233.28531329985708,2,normal,0.23392480053007603,[-0.012037037037037037],[0.34074074074074073],[1],[0],[0],[2.233924800530076],233.28554749954492,233.30178029928356,233.60198439937085,234.5370705993846,,,,,,,,,,Bradley,001,2024-11-13_10h15.45.124,Foreperiod_task,2024.2.1post4,59.96832464331937,2024-11-13 10h15.54.717882 -0800,
76,0,76,[-0.011111111111111112],[0.34074074074074073],[1],[0],[0],[2.2514886995777488],,,,0,0,0,0,76,0,76,0,234.55310689937323,,,,,,,,,,,,234.53735269978642,234.55310689937323,0.00028690043836832047,234.55310689937323,234.55310689937323,234.75318019930273,236.53803439997137,236.53803439997137,236.53803439997137,236.55476669967175,236.78964409977198,2,normal,0.2514886995777488,[-0.011111111111111112],[0.34074074074074073],[1],[0],[0],[2.2514886995777488],236.79006629996002,236.8048634994775,237.1051661996171,238.44019600003958,,,,,,,,,,Bradley,001,2024-11-13_10h15.45.124,Foreperiod_task,2024.2.1post4,59.96832464331937,2024-11-13 10h15.54.717882 -0800,
77,0,77,[-0.011111111111111112],[0.34074074074074073],[1],[0],[0],[2.2514367001131177],,,,0,0,0,0,77,0,77,0,238.45611129980534,,,,,,,,,,,,238.44054530002177,238.45611129980534,0.00032270047813653946,238.45611129980534,238.45611129980534,238.65635739918798,240.4409884000197,240.4409884000197,240.4409884000197,240.45805459935218,240.69266350008547,2,normal,0.2514367001131177,[-0.011111111111111112],[0.34074074074074073],[1],[0],[0],[2.2514367001131177],240.69305859971792,240.70802260003984,241.00827489979565,242.3431231994182,,,,,,,,,,Bradley,001,2024-11-13_10h15.45.124,Foreperiod_task,2024.2.1post4,59.96832464331937,2024-11-13 10h15.54.717882 -0800,
78,0,78,[-0.011111111111111112],[0.34074074074074073],[1],[0],[0],[2.2860190998762846],,,,0,0,0,0,78,0,78,0,242.35976129956543,,,,,,,,,,,,242.34334289934486,242.35976129956543,0.00023090001195669174,242.35976129956543,242.35976129956543,242.5596442995593,244.34449919965118,244.34449919965118,244.34449919965118,244.36104839947075,244.63020259980112,2,normal,0.2860190998762846,[-0.011111111111111112],[0.34074074074074073],[1],[0],[0],[2.2860190998762846],244.63067869935185,244.64466199930757,244.94490379933268,246.03028399962932,,,,,,,,,,Bradley,001,2024-11-13_10h15.45.124,Foreperiod_task,2024.2.1post4,59.96832464331937,2024-11-13 10h15.54.717882 -0800,
79,0,79,[-0.011111111111111112],[0.34074074074074073],[1],[0],[0],[2.4183657001703978],,,,0,0,0,0,79,0,79,0,246.0459218993783,,,,,,,,,,,,246.03053849935532,246.0459218993783,0.00026240013539791107,246.0459218993783,246.0459218993783,246.24554239958525,248.0307852998376,248.0307852998376,248.0307852998376,248.04778070002794,248.44964239932597,2,normal,0.41836570017039776,[-0.011111111111111112],[0.34074074074074073],[1],[0],[0],[2.4183657001703978],248.45002919994295,248.46456229966134,248.76474929973483,250.11645950004458,,,,,,,,,,Bradley,001,2024-11-13_10h15.45.124,Foreperiod_task,2024.2.1post4,59.96832464331937,2024-11-13 10h15.54.717882 -0800,
80,0,80,[-0.011111111111111112],[0.34074074074074073],[1],[0],[0],[0.8670359002426267],,,,0,0,0,0,80,0,80,0,250.13250509928912,,,,,,,,,,,,250.11671279929578,250.13250509928912,0.0002666004002094269,250.13250509928912,250.13250509928912,250.33275299984962,250.61626179981977,250.61626179981977,250.61626179981977,250.63291689939797,250.98438949976116,0.5,normal,0.36703590024262667,[-0.011111111111111112],[0.34074074074074073],[1],[0],[0],[0.8670359002426267],250.98471749946475,251.0003405995667,251.29952579922974,252.5188472000882,,,,,,,,,,Bradley,001,2024-11-13_10h15.45.124,Foreperiod_task,2024.2.1post4,59.96832464331937,2024-11-13 10h15.54.717882 -0800,
81,0,81,[-0.011111111111111112],[0.34074074074074073],[1],[0],[0],[0.7995063997805119],,,,0,0,0,0,81,0,81,0,252.53467979934067,,,,,,,,,,,,252.51915639918298,252.53467979934067,0.0003162994980812073,252.53467979934067,252.53467979934067,252.73469409998506,253.01864739973098,253.01864739973098,253.01864739973098,253.0351144000888,253.319454299286,0.5,normal,0.29950639978051186,[-0.011111111111111112],[0.34074074074074073],[1],[0],[0],[0.7995063997805119],253.31988559942693,253.33510469924659,253.63544129952788,254.7536413995549,,,,,,,,,,Bradley,001,2024-11-13_10h15.45.124,Foreperiod_task,2024.2.1post4,59.96832464331937,2024-11-13 10h15.54.717882 -0800,
82,0,82,[-0.011111111111111112],[0.34074074074074073],[1],[0],[0],[2.2348070004954934],,,,0,0,0,0,82,0,82,0,254.7697147000581,,,,,,,,,,,,254.7539137993008,254.7697147000581,0.0002874992787837982,254.7697147000581,254.7697147000581,254.96995839942247,256.7544585997239,256.7544585997239,256.7544585997239,256.7712720995769,256.9895548997447,2,normal,0.2348070004954934,[-0.011111111111111112],[0.34074074074074073],[1],[0],[0],[2.2348070004954934],256.9899910995737,257.0048928000033,257.30510149989277,258.35660889931023,,,,,,,,,,Bradley,001,2024-11-13_10h15.45.124,Foreperiod_task,2024.2.1post4,59.96832464331937,2024-11-13 10h15.54.717882 -0800,
83,0,83,[-0.010185185185185186],[0.34074074074074073],[1],[0],[0],[0.8173302002251148],,,,0,0,0,0,83,0,83,0,258.37277129944414,,,,,,,,,,,,258.3569336999208,258.37277129944414,0.0003436002880334854,258.37277129944414,258.37277129944414,258.57287979964167,258.85646639950573,258.85646639950573,258.85646639950573,258.87313829921186,259.17520449962467,0.5,normal,0.3173302002251148,[-0.010185185185185186],[0.34074074074074073],[1],[0],[0],[0.8173302002251148],259.1755935996771,259.1901560993865,259.49029359966516,260.39178430009633,,,,,,,,,,Bradley,001,2024-11-13_10h15.45.124,Foreperiod_task,2024.2.1post4,59.96832464331937,2024-11-13 10h15.54.717882 -0800,
84,0,84,[-0.010185185185185186],[0.3398148148148148],[1],[0],[0],[0.8002867000177503],,,,0,0,0,0,84,0,84,0,260.4077455000952,,,,,,,,,,,,260.392064999789,260.4077455000952,0.0002967994660139084,260.4077455000952,260.4077455000952,260.6079649999738,260.8915155995637,260.8915155995637,260.8915155995637,260.9081692993641,261.19316700007766,0.5,normal,0.30028670001775026,[-0.010185185185185186],[0.3398148148148148],[1],[0],[0],[0.8002867000177503],261.19357999973,261.20851209945977,261.5085851997137,262.84384919982404,,,,,,,,,,Bradley,001,2024-11-13_10h15.45.124,Foreperiod_task,2024.2.1post4,59.96832464331937,2024-11-13 10h15.54.717882 -0800,
85,0,85,[-0.010185185185185186],[0.3398148148148148],[1],[0],[0],[2.2680133003741503],,,,0,0,0,0,85,0,85,0,262.8598667997867,,,,,,,,,,,,262.8441269993782,262.8598667997867,0.00029250048100948334,262.8598667997867,262.8598667997867,263.05993619933724,264.844116599299,264.844116599299,264.844116599299,264.86150929983705,265.1127964993939,2,normal,0.2680133003741503,[-0.010185185185185186],[0.3398148148148148],[1],[0],[0],[2.2680133003741503],265.1131132999435,265.1283813994378,265.4286414999515,266.48008629959077,,,,,,,,,,Bradley,001,2024-11-13_10h15.45.124,Foreperiod_task,2024.2.1post4,59.96832464331937,2024-11-13 10h15.54.717882 -0800,
86,0,86,[-0.010185185185185186],[0.3398148148148148],[1],[0],[0],[2.3516690004616976],,,,0,0,0,0,86,0,86,0,266.4961730996147,,,,,,,,,,,,266.4803355000913,266.4961730996147,0.0002763001248240471,266.4961730996147,266.4961730996147,266.6963462000713,268.481124099344,268.481124099344,268.481124099344,268.49780759960413,268.8332296991721,2,normal,0.3516690004616976,[-0.010185185185185186],[0.3398148148148148],[1],[0],[0],[2.3516690004616976],268.8337587993592,268.84808819927275,269.1483827000484,270.1488959994167,,,,,,,,,,Bradley,001,2024-11-13_10h15.45.124,Foreperiod_task,2024.2.1post4,59.96832464331937,2024-11-13 10h15.54.717882 -0800,
87,0,87,[-0.010185185185185186],[0.3398148148148148],[1],[0],[0],[0.8015778996050358],,,,0,0,0,0,87,0,87,0,270.16572469938546,,,,,,,,,,,,270.1490818997845,270.16572469938546,0.00019170064479112625,270.16572469938546,270.16572469938546,270.3657855000347,270.6496919998899,270.6496919998899,270.6496919998899,270.66658699978143,270.95152849983424,0.5,normal,0.3015778996050358,[-0.010185185185185186],[0.3398148148148148],[1],[0],[0],[0.8015778996050358],270.9521860992536,270.9666200000793,271.2667189994827,272.2019043993205,,,,,,,,,,Bradley,001,2024-11-13_10h15.45.124,Foreperiod_task,2024.2.1post4,59.96832464331937,2024-11-13 10h15.54.717882 -0800,
88,0,88,[-0.010185185185185186],[0.3398148148148148],[1],[0],[0],[2.2679033996537328],,,,0,0,0,0,88,0,88,0,272.21778619941324,,,,,,,,,,,,272.2022190000862,272.21778619941324,0.0003208993002772331,272.21778619941324,272.21778619941324,272.4177635991946,274.20258039981127,274.20258039981127,274.20258039981127,274.2192957997322,274.4710240997374,2,normal,0.2679033996537328,[-0.010185185185185186],[0.3398148148148148],[1],[0],[0],[2.2679033996537328],274.4715978996828,274.48622019961476,274.78631439991295,275.8048817999661,,,,,,,,,,Bradley,001,2024-11-13_10h15.45.124,Foreperiod_task,2024.2.1post4,59.96832464331937,2024-11-13 10h15.54.717882 -0800,
89,0,89,[-0.010185185185185186],[0.3398148148148148],[1],[0],[0],[2.268151099793613],,,,0,0,0,0,89,0,89,0,275.82052289973944,,,,,,,,,,,,275.8051675995812,275.82052289973944,0.0002981005236506462,275.82052289973944,275.82052289973944,276.0210668994114,277.80558439996094,277.80558439996094,277.80558439996094,277.8223148994148,278.07407229952514,2,normal,0.26815109979361296,[-0.010185185185185186],[0.3398148148148148],[1],[0],[0],[2.268151099793613],278.07457199972123,278.0890067992732,278.3894094992429,279.5243296995759,,,,,,,,,,Bradley,001,2024-11-13_10h15.45.124,Foreperiod_task,2024.2.1post4,59.96832464331937,2024-11-13 10h15.54.717882 -0800,
90,0,90,[-0.008333333333333333],[0.33796296296296297],[1],[0],[0],[2.25181380007416],,,,0,0,0,0,90,0,90,0,279.54026039969176,,,,,,,,,,,,279.5245725000277,279.54026039969176,0.0002558007836341858,279.54026039969176,279.54026039969176,279.7404783992097,281.52549409959465,281.52549409959465,281.52549409959465,281.5421300996095,281.7774193994701,2,normal,0.2518138000741601,[-0.008333333333333333],[0.33796296296296297],[1],[0],[0],[2.25181380007416],281.77785379998386,281.79237439949065,282.09237389918417,283.2773520993069,,,,,,,,,,Bradley,001,2024-11-13_10h15.45.124,Foreperiod_task,2024.2.1post4,59.96832464331937,2024-11-13 10h15.54.717882 -0800,
91,0,91,[-0.000925925925925926],[0.33796296296296297],[1],[0],[0],[0.8503599995747209],,,,0,0,0,0,91,0,91,0,283.2935342993587,,,,,,,,,,,,283.27759019937366,283.2935342993587,0.0002501998096704483,283.2935342993587,283.2935342993587,283.49366069957614,283.7772485995665,283.7772485995665,283.7772485995665,283.7940488997847,284.12878319993615,0.5,normal,0.35035999957472086,[-0.000925925925925926],[0.33796296296296297],[1],[0],[0],[0.8503599995747209],284.12929379940033,284.14431039988995,284.4443283993751,285.4792310995981,,,,,,,,,,Bradley,001,2024-11-13_10h15.45.124,Foreperiod_task,2024.2.1post4,59.96832464331937,2024-11-13 10h15.54.717882 -0800,
92,0,92,[-0.000925925925925926],[0.33796296296296297],[1],[0],[0],[2.2848403993993998],,,,0,0,0,0,92,0,92,0,285.49527449999005,,,,,,,,,,,,285.47951119951904,285.49527449999005,0.0002953996881842613,285.49527449999005,285.49527449999005,285.6953897997737,287.4805300999433,287.4805300999433,287.4805300999433,287.49719709996134,287.76503979973495,2,normal,0.28484039939939976,[-0.000925925925925926],[0.33796296296296297],[1],[0],[0],[2.2848403993993998],287.7655672999099,287.7805474996567,288.0807727994397,289.34912439994514,,,,,,,,,,Bradley,001,2024-11-13_10h15.45.124,Foreperiod_task,2024.2.1post4,59.96832464331937,2024-11-13 10h15.54.717882 -0800,
93,0,93,[-0.000925925925925926],[0.33796296296296297],[1],[0],[0],[0.7838190998882055],,,,0,0,0,0,93,0,93,0,289.3651713998988,,,,,,,,,,,,289.3493904992938,289.3651713998988,0.00027950014919042587,289.3651713998988,289.3651713998988,289.56560369953513,289.8490031994879,289.8490031994879,289.8490031994879,289.8655877998099,290.1339503992349,0.5,normal,0.28381909988820553,[-0.000925925925925926],[0.33796296296296297],[1],[0],[0],[0.7838190998882055],290.13444869965315,290.14913289994,290.4493595995009,291.5175781995058,,,,,,,,,,Bradley,001,2024-11-13_10h15.45.124,Foreperiod_task,2024.2.1post4,59.96832464331937,2024-11-13 10h15.54.717882 -0800,
94,0,94,[0.0],[0.33796296296296297],[1],[0],[0],[2.251966900192201],,,,0,0,0,0,94,0,94,0,291.5336096994579,,,,,,,,,,,,291.5178317995742,291.5336096994579,0.0002666004002094269,291.5336096994579,291.5336096994579,291.7339107999578,293.51885749958456,293.51885749958456,293.51885749958456,293.5355725996196,293.77067809924483,2,normal,0.25196690019220114,[0.0],[0.33796296296296297],[1],[0],[0],[2.251966900192201],293.7712102998048,293.7856413992122,294.08601169940084,295.0871894992888,,,,,,,,,,Bradley,001,2024-11-13_10h15.45.124,Foreperiod_task,2024.2.1post4,59.96832464331937,2024-11-13 10h15.54.717882 -0800,
95,0,95,[0.0],[0.33796296296296297],[1],[0],[0],[2.2517570005729795],,,,0,0,0,0,95,0,95,0,295.10339669976383,,,,,,,,,,,,295.0874727992341,295.10339669976383,0.00029879994690418243,295.10339669976383,295.10339669976383,295.3033181997016,297.0882814992219,297.0882814992219,297.0882814992219,297.1048619998619,297.3400159999728,2,normal,0.25175700057297945,[0.0],[0.33796296296296297],[1],[0],[0],[2.2517570005729795],297.34044579975307,297.35513849928975,297.65566819999367,298.9239765992388,,,,,,,,,,Bradley,001,2024-11-13_10h15.45.124,Foreperiod_task,2024.2.1post4,59.96832464331937,2024-11-13 10h15.54.717882 -0800,
96,0,96,[0.0],[0.33796296296296297],[1],[0],[0],[2.2681280998513103],,,,0,0,0,0,96,0,96,0,298.9399979999289,,,,,,,,,,,,298.9242352992296,298.9399979999289,0.00027609989047050476,298.9399979999289,298.9399979999289,299.1402388000861,300.92475689947605,300.92475689947605,300.92475689947605,300.9418069999665,301.19318959955126,2,normal,0.26812809985131025,[0.0],[0.33796296296296297],[1],[0],[0],[2.2681280998513103],301.19360859971493,301.2083605993539,301.50861379969865,302.4433736996725,,,,,,,,,,Bradley,001,2024-11-13_10h15.45.124,Foreperiod_task,2024.2.1post4,59.96832464331937,2024-11-13 10h15.54.717882 -0800,
97,0,97,[0.0],[0.33796296296296297],[1],[0],[0],[2.4017699994146824],,,,0,0,0,0,97,0,97,0,302.4596449993551,,,,,,,,,,,,302.4436436994001,302.4596449993551,0.0002856999635696411,302.4596449993551,302.4596449993551,302.65963589958847,304.44436959922314,304.44436959922314,304.44436959922314,304.4610103992745,304.8462087996304,2,normal,0.4017699994146824,[0.0],[0.33796296296296297],[1],[0],[0],[2.4017699994146824],304.8466137992218,304.86141979973763,305.16159319970757,306.2132153995335,,,,,,,,,,Bradley,001,2024-11-13_10h15.45.124,Foreperiod_task,2024.2.1post4,59.96832464331937,2024-11-13 10h15.54.717882 -0800,
98,0,98,[-0.11481481481481481],[0.29444444444444445],[1],[0],[0],[2.2346956999972463],,,,0,0,0,0,98,0,98,0,306.2292075995356,,,,,,,,,,,,306.2134841000661,306.2292075995356,0.0002846997231245041,306.2292075995356,306.2292075995356,306.4291191995144,308.21415699925274,308.21415699925274,308.21415699925274,308.23084759991616,308.44886469934136,2,normal,0.23469569999724627,[-0.11481481481481481],[0.29444444444444445],[1],[0],[0],[2.2346956999972463],308.4492254992947,308.46442109998316,308.7645687991753,309.6994940992445,,,,,,,,,,Bradley,001,2024-11-13_10h15.45.124,Foreperiod_task,2024.2.1post4,59.96832464331937,2024-11-13 10h15.54.717882 -0800,
99,0,99,[-0.08611111111111111],[0.29074074074074074],[1],[0],[0],[0.9005792997777462],,,,0,0,0,0,99,0,99,0,309.71542149968445,,,,,,,,,,,,309.69977939967066,309.71542149968445,0.0003001997247338295,309.71542149968445,309.71542149968445,309.91551070008427,310.1993496995419,310.1993496995419,310.1993496995419,310.21586029976606,310.60115609969944,0.5,normal,0.4005792997777462,[-0.08611111111111111],[0.29074074074074074],[1],[0],[0],[0.9005792997777462],310.60167129989713,310.61629929952323,310.91648899950087,312.268615799956,,,,,,,,,,Bradley,001,2024-11-13_10h15.45.124,Foreperiod_task,2024.2.1post4,59.96832464331937,2024-11-13 10h15.54.717882 -0800,
0,0,0,,,,,,,space,6.64994650054723,None,0,0,0,0,,,,,,,,,,,,,,,,,,,,,,,,,,,,,,,,,,,,,,,,,312.2856099996716,312.28897659946233,313.268565999344,319.97648039925843,space,6.64994650054723,None,,,Bradley,001,2024-11-13_10h15.45.124,Foreperiod_task,2024.2.1post4,59.96832464331937,2024-11-13 10h15.54.717882 -0800,
0,0,0,[0.007407407407407408],[0.30277777777777776],[1],[0],[0],[0.8313680998980999],,,,1,0,1,0,0,0,0,0,319.9803370991722,,,,,,,,,,,,319.97701909951866,319.9803370991722,0.0005241995677351952,319.9803370991722,319.9803370991722,320.19092969968915,320.49110799934715,320.49110799934715,320.49110799934715,320.50771659985185,320.8090378995985,0.5,normal,0.3313680998980999,[0.007407407407407408],[0.30277777777777776],[1],[0],[0],[0.8313680998980999],320.8094470994547,320.82476189918816,321.1249415995553,322.2101611997932,,,,,,,,,,Bradley,001,2024-11-13_10h15.45.124,Foreperiod_task,2024.2.1post4,59.96832464331937,2024-11-13 10h15.54.717882 -0800,
1,0,1,[0.008333333333333333],[0.2972222222222222],[1],[0],[0],[0.7824790999293327],,,,1,0,1,0,1,0,1,0,322.2259117998183,,,,,,,,,,,,322.2105104997754,322.2259117998183,0.0003609992563724518,322.2259117998183,322.2259117998183,322.426118100062,322.70963649917394,322.70963649917394,322.70963649917394,322.7268709996715,322.9935288997367,0.5,normal,0.28247909992933273,[0.008333333333333333],[0.2972222222222222],[1],[0],[0],[0.7824790999293327],322.99371929932386,323.0093438997865,323.3100458998233,324.3450513994321,,,,,,,,,,Bradley,001,2024-11-13_10h15.45.124,Foreperiod_task,2024.2.1post4,59.96832464331937,2024-11-13 10h15.54.717882 -0800,
2,0,2,[0.008333333333333333],[0.2953703703703704],[1],[0],[0],[2.301694500260055],,,,1,0,1,0,2,0,2,0,324.3609771998599,,,,,,,,,,,,324.3453375995159,324.3609771998599,0.0003033000975847244,324.3609771998599,324.3609771998599,324.56094949971884,326.34606519993395,326.34606519993395,326.34606519993395,326.36284029949456,326.6478357994929,2,normal,0.30169450026005507,[0.008333333333333333],[0.2953703703703704],[1],[0],[0],[2.301694500260055],326.648392399773,326.6629592999816,326.96249889954925,328.3150192992762,,,,,,,,,,Bradley,001,2024-11-13_10h15.45.124,Foreperiod_task,2024.2.1post4,59.96832464331937,2024-11-13 10h15.54.717882 -0800,
3,0,3,[0.009259259259259259],[0.2953703703703704],[1],[0],[0],[0.8002415997907519],,,,1,0,1,0,3,0,3,0,328.3309849994257,,,,,,,,,,,,328.31529659964144,328.3309849994257,0.00028639938682317734,328.3309849994257,328.3309849994257,328.5311420997605,328.81437319982797,328.81437319982797,328.81437319982797,328.8313443996012,329.1163534997031,0.5,normal,0.30024159979075193,[0.009259259259259259],[0.2953703703703704],[1],[0],[0],[0.8002415997907519],329.11677869968116,329.1316197998822,329.43143989983946,330.4001528993249,,,,,,,,,,Bradley,001,2024-11-13_10h15.45.124,Foreperiod_task,2024.2.1post4,59.96832464331937,2024-11-13 10h15.54.717882 -0800,
4,0,4,[0.009259259259259259],[0.2953703703703704],[1],[0],[0],[2.2171021001413465],,,,1,0,1,0,4,0,4,0,330.4152772994712,,,,,,,,,,,,330.40046069957316,330.4152772994712,0.00031709950417280197,330.4152772994712,330.4152772994712,330.6161127993837,332.40116050001234,332.40116050001234,332.40116050001234,332.4169239997864,332.61795869935304,2,normal,0.21710210014134645,[0.009259259259259259],[0.2953703703703704],[1],[0],[0],[2.2171021001413465],332.6181348999962,332.6345357000828,332.93467049952596,334.23645759932697,,,,,,,,,,Bradley,001,2024-11-13_10h15.45.124,Foreperiod_task,2024.2.1post4,59.96832464331937,2024-11-13 10h15.54.717882 -0800,
5,0,5,[0.014814814814814815],[0.28703703703703703],[1],[0],[0],[2.2517253002151847],,,,1,0,1,0,5,0,5,0,334.25245149992406,,,,,,,,,,,,334.2367368992418,334.25245149992406,0.0002945996820926666,334.25245149992406,334.25245149992406,334.4524021996185,336.23772109951824,336.23772109951824,336.23772109951824,336.2541578998789,336.4893243992701,2,normal,0.2517253002151847,[0.014814814814814815],[0.28703703703703703],[1],[0],[0],[2.2517253002151847],336.489804700017,336.50457379966974,336.8046014998108,338.0896410997957,,,,,,,,,,Bradley,001,2024-11-13_10h15.45.124,Foreperiod_task,2024.2.1post4,59.96832464331937,2024-11-13 10h15.54.717882 -0800,
6,0,6,[0.014814814814814815],[0.28703703703703703],[1],[0],[0],[2.2683516005054116],,,,1,0,1,0,6,0,6,0,338.1057875994593,,,,,,,,,,,,338.0898980991915,338.1057875994593,0.0002717999741435051,338.1057875994593,338.1057875994593,338.30610809940845,340.0906843999401,340.0906843999401,340.0906843999401,340.1070991996676,340.35895529948175,2,normal,0.2683516005054116,[0.014814814814814815],[0.28703703703703703],[1],[0],[0],[2.2683516005054116],340.3592863995582,340.3742720000446,340.67458970006555,342.0095164999366,,,,,,,,,,Bradley,001,2024-11-13_10h15.45.124,Foreperiod_task,2024.2.1post4,59.96832464331937,2024-11-13 10h15.54.717882 -0800,
7,0,7,[0.014814814814814815],[0.28703703703703703],[1],[0],[0],[0.8507160004228354],,,,1,0,1,0,7,0,7,0,342.0256576994434,,,,,,,,,,,,342.0097969993949,342.0256576994434,0.0002960003912448883,342.0256576994434,342.0256576994434,342.22570479940623,342.50944369938225,342.50944369938225,342.50944369938225,342.52613750007004,342.861209099181,0.5,normal,0.35071600042283535,[0.014814814814814815],[0.28703703703703703],[1],[0],[0],[0.8507160004228354],342.86159629933536,342.876388899982,343.17707069963217,344.27870499994606,,,,,,,,,,Bradley,001,2024-11-13_10h15.45.124,Foreperiod_task,2024.2.1post4,59.96832464331937,2024-11-13 10h15.54.717882 -0800,
8,0,8,[0.014814814814814815],[0.28703703703703703],[1],[0],[0],[0.8666882002726197],,,,1,0,1,0,8,0,8,0,344.2944516995922,,,,,,,,,,,,344.2790068993345,344.2944516995922,0.0003116996958851814,344.2944516995922,344.2944516995922,344.494241499342,344.79409729968756,344.79409729968756,344.79409729968756,344.81061429996043,345.14656159933656,0.5,normal,0.3666882002726197,[0.014814814814814815],[0.28703703703703703],[1],[0],[0],[0.8666882002726197],345.14698929991573,345.1616038000211,345.4610048998147,346.6634644996375,,,,,,,,,,Bradley,001,2024-11-13_10h15.45.124,Foreperiod_task,2024.2.1post4,59.96832464331937,2024-11-13 10h15.54.717882 -0800,
9,0,9,[0.016666666666666666],[0.28425925925925927],[1],[0],[0],[2.2682924000546336],,,,1,0,1,0,9,0,9,0,346.6794535992667,,,,,,,,,,,,346.66377360001206,346.6794535992667,0.00031850021332502365,346.6794535992667,346.6794535992667,346.8796780994162,348.6645070994273,348.6645070994273,348.6645070994273,348.68123479932547,348.93286139983684,2,normal,0.2682924000546336,[0.016666666666666666],[0.28425925925925927],[1],[0],[0],[2.2682924000546336],348.9332721000537,348.948678500019,349.24823219981045,350.5167837999761,,,,,,,,,,Bradley,001,2024-11-13_10h15.45.124,Foreperiod_task,2024.2.1post4,59.96832464331937,2024-11-13 10h15.54.717882 -0800,
10,0,10,[0.02962962962962963],[0.2898148148148148],[1],[0],[0],[0.7665013996884227],,,,1,0,1,0,10,0,10,0,350.5327296992764,,,,,,,,,,,,350.5170650994405,350.5327296992764,0.0002932995557785034,350.5327296992764,350.5327296992764,350.73291189968586,351.01650909986347,351.01650909986347,351.01650909986347,351.0334572996944,351.28471939917654,0.5,normal,0.2665013996884227,[0.02962962962962963],[0.2898148148148148],[1],[0],[0],[0.7665013996884227],351.28508879989386,351.300112599507,351.60026349965483,352.85196719970554,,,,,,,,,,Bradley,001,2024-11-13_10h15.45.124,Foreperiod_task,2024.2.1post4,59.96832464331937,2024-11-13 10h15.54.717882 -0800,
11,0,11,[0.030555555555555555],[0.30185185185185187],[1],[0],[0],[0.7503976002335548],,,,1,0,1,0,11,0,11,0,352.8680630000308,,,,,,,,,,,,352.8522263998166,352.8680630000308,0.0002769995480775833,352.8680630000308,352.8680630000308,353.0682306000963,353.351784799248,353.351784799248,353.351784799248,353.3685050997883,353.6033785995096,0.5,normal,0.25039760023355484,[0.030555555555555555],[0.30185185185185187],[1],[0],[0],[0.7503976002335548],353.6038051992655,353.6185876997188,353.91884659975767,354.9873118000105,,,,,,,,,,Bradley,001,2024-11-13_10h15.45.124,Foreperiod_task,2024.2.1post4,59.96832464331937,2024-11-13 10h15.54.717882 -0800,
12,0,12,[0.030555555555555555],[0.3074074074074074],[1],[0],[0],[2.2510820999741554],,,,1,0,1,0,12,0,12,0,355.00307919923216,,,,,,,,,,,,354.98759289924055,355.00307919923216,0.0002977997064590454,355.00307919923216,355.00307919923216,355.2032086998224,356.98808680009097,356.98808680009097,356.98808680009097,357.0049429992214,357.2392569994554,2,normal,0.2510820999741554,[0.030555555555555555],[0.3074074074074074],[1],[0],[0],[2.2510820999741554],357.2395665999502,357.25498159974813,357.5551940994337,358.79014879930764,,,,,,,,,,Bradley,001,2024-11-13_10h15.45.124,Foreperiod_task,2024.2.1post4,59.96832464331937,2024-11-13 10h15.54.717882 -0800,
13,0,13,[0.030555555555555555],[0.3074074074074074],[1],[0],[0],[2.2685558004304767],,,,1,0,1,0,13,0,13,0,358.8062185999006,,,,,,,,,,,,358.7904042992741,358.8062185999006,0.00026820041239261627,358.8062185999006,358.8062185999006,359.00650689937174,360.7909511998296,360.7909511998296,360.7909511998296,360.80831819958985,361.0596455996856,2,normal,0.26855580043047667,[0.030555555555555555],[0.3074074074074074],[1],[0],[0],[2.2685558004304767],361.0600449992344,361.07497609965503,361.37525939941406,362.3933247998357,,,,,,,,,,Bradley,001,2024-11-13_10h15.45.124,Foreperiod_task,2024.2.1post4,59.96832464331937,2024-11-13 10h15.54.717882 -0800,
14,0,14,[0.030555555555555555],[0.3074074074074074],[1],[0],[0],[2.251361900009215],,,,1,0,1,0,14,0,14,0,362.4092481993139,,,,,,,,,,,,362.3936065994203,362.4092481993139,0.00030030030757188797,362.4092481993139,362.4092481993139,362.6095266994089,364.3944539995864,364.3944539995864,364.3944539995864,364.41090739984065,364.6457203999162,2,normal,0.2513619000092149,[0.030555555555555555],[0.3074074074074074],[1],[0],[0],[2.251361900009215],364.64616709947586,364.6610733997077,364.9614269994199,366.1972351996228,,,,,,,,,,Bradley,001,2024-11-13_10h15.45.124,Foreperiod_task,2024.2.1post4,59.96832464331937,2024-11-13 10h15.54.717882 -0800,
15,0,15,[0.030555555555555555],[0.30925925925925923],[1],[0],[0],[0.7825053995475173],,,,1,0,1,0,15,0,15,0,366.21263839956373,,,,,,,,,,,,366.1975150993094,366.21263839956373,0.00029799994081258774,366.21263839956373,366.21263839956373,366.412653199397,366.7126842997968,366.7126842997968,366.7126842997968,366.72941849939525,366.98075609933585,0.5,normal,0.2825053995475173,[0.030555555555555555],[0.30925925925925923],[1],[0],[0],[0.7825053995475173],366.98121409956366,366.9960925998166,367.2966655995697,368.3145856000483,,,,,,,,,,Bradley,001,2024-11-13_10h15.45.124,Foreperiod_task,2024.2.1post4,59.96832464331937,2024-11-13 10h15.54.717882 -0800,
16,0,16,[0.030555555555555555],[0.30925925925925923],[1],[0],[0],[2.2850919999182224],,,,1,0,1,0,16,0,16,0,368.3303839992732,,,,,,,,,,,,368.31485839933157,368.3303839992732,0.00028640031814575195,368.3303839992732,368.3303839992732,368.53049429971725,370.3157226992771,370.3157226992771,370.3157226992771,370.33236359991133,370.6007033996284,2,normal,0.2850919999182224,[0.030555555555555555],[0.30925925925925923],[1],[0],[0],[2.2850919999182224],370.601050700061,370.6162561997771,370.9162421999499,371.951177499257,,,,,,,,,,Bradley,001,2024-11-13_10h15.45.124,Foreperiod_task,2024.2.1post4,59.96832464331937,2024-11-13 10h15.54.717882 -0800,
17,0,17,[0.030555555555555555],[0.30925925925925923],[1],[0],[0],[0.8508131997659802],,,,1,0,1,0,17,0,17,0,371.9672769997269,,,,,,,,,,,,371.95150339975953,371.9672769997269,0.00034040026366710663,371.9672769997269,371.9672769997269,372.16741989925504,372.45105839986354,372.45105839986354,372.45105839986354,372.4677212992683,372.8031824994832,0.5,normal,0.35081319976598024,[0.030555555555555555],[0.30925925925925923],[1],[0],[0],[0.8508131997659802],372.80356789939106,372.81793370004743,373.1181055000052,374.2864394998178,,,,,,,,,,Bradley,001,2024-11-13_10h15.45.124,Foreperiod_task,2024.2.1post4,59.96832464331937,2024-11-13 10h15.54.717882 -0800,
18,0,18,[0.030555555555555555],[0.30925925925925923],[1],[0],[0],[0.817213200032711],,,,1,0,1,0,18,0,18,0,374.3025225000456,,,,,,,,,,,,374.28668629936874,374.3025225000456,0.0002691997215151787,374.3025225000456,374.3025225000456,374.5026171999052,374.78621869999915,374.78621869999915,374.78621869999915,374.8030343996361,375.1046882998198,0.5,normal,0.31721320003271103,[0.030555555555555555],[0.30925925925925923],[1],[0],[0],[0.817213200032711],375.1051512993872,375.11997079942375,375.4200308993459,376.60509119927883,,,,,,,,,,Bradley,001,2024-11-13_10h15.45.124,Foreperiod_task,2024.2.1post4,59.96832464331937,2024-11-13 10h15.54.717882 -0800,
19,0,19,[0.030555555555555555],[0.30925925925925923],[1],[0],[0],[0.7667617993429303],,,,1,0,1,0,19,0,19,0,376.6211381992325,,,,,,,,,,,,376.6053550997749,376.6211381992325,0.00028190016746520996,376.6211381992325,376.6211381992325,376.82133619952947,377.1051628999412,377.1051628999412,377.1051628999412,377.121703799814,377.372746899724,0.5,normal,0.2667617993429303,[0.030555555555555555],[0.30925925925925923],[1],[0],[0],[0.7667617993429303],377.37312150001526,377.3884431999177,377.6886034999043,378.65686360001564,,,,,,,,,,Bradley,001,2024-11-13_10h15.45.124,Foreperiod_task,2024.2.1post4,59.96832464331937,2024-11-13 10h15.54.717882 -0800,
20,0,20,[0.030555555555555555],[0.30925925925925923],[1],[0],[0],[2.2347850995138288],,,,1,0,1,0,20,0,20,0,378.6728240996599,,,,,,,,,,,,378.6571896998212,378.6728240996599,0.0003444002941250801,378.6728240996599,378.6728240996599,378.87294899951667,380.65780809987336,380.65780809987336,380.65780809987336,380.67472849972546,380.89317009970546,2,normal,0.23478509951382875,[0.030555555555555555],[0.30925925925925923],[1],[0],[0],[2.2347850995138288],380.8935977993533,380.9080756995827,381.20831719972193,382.1097539998591,,,,,,,,,,Bradley,001,2024-11-13_10h15.45.124,Foreperiod_task,2024.2.1post4,59.96832464331937,2024-11-13 10h15.54.717882 -0800,
21,0,21,[0.030555555555555555],[0.30925925925925923],[1],[0],[0],[0.8338070996105671],,,,1,0,1,0,21,0,21,0,382.12576700001955,,,,,,,,,,,,382.11002920009196,382.12576700001955,0.000291300006210804,382.12576700001955,382.12576700001955,382.3257761998102,382.60946599952877,382.60946599952877,382.60946599952877,382.6266615996137,382.944747899659,0.5,normal,0.3338070996105671,[0.030555555555555555],[0.30925925925925923],[1],[0],[0],[0.8338070996105671],382.9451703000814,382.95984630007297,383.259811299853,384.24487009923905,,,,,,,,,,Bradley,001,2024-11-13_10h15.45.124,Foreperiod_task,2024.2.1post4,59.96832464331937,2024-11-13 10h15.54.717882 -0800,
22,0,22,[0.030555555555555555],[0.3111111111111111],[1],[0],[0],[1.7010291004553437],,,,1,0,1,0,22,0,22,0,384.26088869944215,,,,,,,,,,,,384.2451513996348,384.26088869944215,0.00029399991035461426,384.26088869944215,384.26088869944215,384.46081609930843,385.67865969985723,385.67865969985723,385.67865969985723,385.6953363995999,385.94703319948167,1.4219094162319101,surprise,0.2791196842234336,[0.030555555555555555],[0.3111111111111111],[1],[0],[0],[1.7010291004553437],385.947503099218,385.96222859993577,386.2625027997419,387.4807889992371,,,,,,,,,,Bradley,001,2024-11-13_10h15.45.124,Foreperiod_task,2024.2.1post4,59.96832464331937,2024-11-13 10h15.54.717882 -0800,
23,0,23,[0.030555555555555555],[0.3111111111111111],[1],[0],[0],[0.766414500772953],,,,1,0,1,0,23,0,23,0,387.4968220992014,,,,,,,,,,,,387.48107239976525,387.4968220992014,0.0002998998388648033,387.4968220992014,387.4968220992014,387.69688339997083,387.9805352995172,387.9805352995172,387.9805352995172,387.9972233995795,388.2479633996263,0.5,normal,0.26641450077295303,[0.030555555555555555],[0.3111111111111111],[1],[0],[0],[0.766414500772953],388.24816319998354,388.26396830007434,388.5638012997806,389.7493661995977,,,,,,,,,,Bradley,001,2024-11-13_10h15.45.124,Foreperiod_task,2024.2.1post4,59.96832464331937,2024-11-13 10h15.54.717882 -0800,
24,0,24,[0.030555555555555555],[0.3111111111111111],[1],[0],[0],[2.2515389006584883],,,,1,0,1,0,24,0,24,0,389.7654389999807,,,,,,,,,,,,389.74962789937854,389.7654389999807,0.0002853004261851311,389.7654389999807,389.7654389999807,389.96546999923885,391.75097929965705,391.75097929965705,391.75097929965705,391.767406899482,392.002021599561,2,normal,0.2515389006584883,[0.030555555555555555],[0.3111111111111111],[1],[0],[0],[2.2515389006584883],392.0025405995548,392.0173228997737,392.3173835994676,393.4691424993798,,,,,,,,,,Bradley,001,2024-11-13_10h15.45.124,Foreperiod_task,2024.2.1post4,59.96832464331937,2024-11-13 10h15.54.717882 -0800,
25,0,25,[0.030555555555555555],[0.3111111111111111],[1],[0],[0],[2.368080200627446],,,,1,0,1,0,25,0,25,0,393.48570289928466,,,,,,,,,,,,393.4694444993511,393.48570289928466,0.0003213007003068924,393.48570289928466,393.48570289928466,393.6853537997231,395.4702664995566,395.4702664995566,395.4702664995566,395.4869816992432,395.8382421992719,2,normal,0.3680802006274462,[0.030555555555555555],[0.3111111111111111],[1],[0],[0],[2.368080200627446],395.8387192999944,395.85338679980487,396.153964699246,397.4891546992585,,,,,,,,,,Bradley,001,2024-11-13_10h15.45.124,Foreperiod_task,2024.2.1post4,59.96832464331937,2024-11-13 10h15.54.717882 -0800,
26,0,26,[0.030555555555555555],[0.31203703703703706],[1],[0],[0],[0.8336918996647],,,,1,0,1,0,26,0,26,0,397.5052735991776,,,,,,,,,,,,397.48942489922047,397.5052735991776,0.00029239989817142487,397.5052735991776,397.5052735991776,397.70533159933984,397.9890100993216,397.9890100993216,397.9890100993216,398.00561189930886,398.3239204995334,0.5,normal,0.33369189966470003,[0.030555555555555555],[0.31203703703703706],[1],[0],[0],[0.8336918996647],398.3244076995179,398.33924019988626,398.6392210992053,399.62439979985356,,,,,,,,,,Bradley,001,2024-11-13_10h15.45.124,Foreperiod_task,2024.2.1post4,59.96832464331937,2024-11-13 10h15.54.717882 -0800,
27,0,27,[0.030555555555555555],[0.31203703703703706],[1],[0],[0],[2.268135200254619],,,,1,0,1,0,27,0,27,0,399.6403399994597,,,,,,,,,,,,399.62471779994667,399.6403399994597,0.0003366004675626755,399.6403399994597,399.6403399994597,399.8408229993656,401.6258751992136,401.6258751992136,401.6258751992136,401.6424310998991,401.89361889939755,2,normal,0.2681352002546191,[0.030555555555555555],[0.31203703703703706],[1],[0],[0],[2.268135200254619],401.89402669947594,401.90879249945283,402.20910749956965,403.1771844998002,,,,,,,,,,Bradley,001,2024-11-13_10h15.45.124,Foreperiod_task,2024.2.1post4,59.96832464331937,2024-11-13 10h15.54.717882 -0800,
28,0,28,[0.030555555555555555],[0.31203703703703706],[1],[0],[0],[0.8004784993827343],,,,1,0,1,0,28,0,28,0,403.19326590001583,,,,,,,,,,,,403.17748259939253,403.19326590001583,0.00031299982219934464,403.19326590001583,403.19326590001583,403.3934154994786,403.67698829993606,403.67698829993606,403.67698829993606,403.6937890993431,403.9787766998634,0.5,normal,0.3004784993827343,[0.030555555555555555],[0.31203703703703706],[1],[0],[0],[0.8004784993827343],403.97922839969397,403.9939558999613,404.2942049000412,405.479321599938,,,,,,,,,,Bradley,001,2024-11-13_10h15.45.124,Foreperiod_task,2024.2.1post4,59.96832464331937,2024-11-13 10h15.54.717882 -0800,
29,0,29,[0.026851851851851852],[0.3138888888888889],[1],[0],[0],[0.7500771004706621],,,,1,0,1,0,29,0,29,0,405.4950532997027,,,,,,,,,,,,405.4796045999974,405.4950532997027,0.0002998998388648033,405.4950532997027,405.4950532997027,405.69530599936843,405.978886699304,405.978886699304,405.978886699304,405.9956161994487,406.2303930995986,0.5,normal,0.2500771004706621,[0.026851851851851852],[0.3138888888888889],[1],[0],[0],[0.7500771004706621],406.2307720994577,406.24579059984535,406.5459683993831,407.5311062997207,,,,,,,,,,Bradley,001,2024-11-13_10h15.45.124,Foreperiod_task,2024.2.1post4,59.96832464331937,2024-11-13 10h15.54.717882 -0800,
30,0,30,[0.026851851851851852],[0.3138888888888889],[1],[0],[0],[0.7833812003955245],,,,1,0,1,0,30,0,30,0,407.54718660004437,,,,,,,,,,,,407.5313938995823,407.54718660004437,0.00029959995299577713,407.54718660004437,407.54718660004437,407.7470996994525,408.03064979985356,408.03064979985356,408.03064979985356,408.0472812000662,408.3155801994726,0.5,normal,0.2833812003955245,[0.026851851851851852],[0.3138888888888889],[1],[0],[0],[0.7833812003955245],408.3159912992269,408.3306714994833,408.6310105994344,409.74939680006355,,,,,,,,,,Bradley,001,2024-11-13_10h15.45.124,Foreperiod_task,2024.2.1post4,59.96832464331937,2024-11-13 10h15.54.717882 -0800,
31,0,31,[0.026851851851851852],[0.3101851851851852],[1],[0],[0],[0.7502563996240497],,,,1,0,1,0,31,0,31,0,409.765393499285,,,,,,,,,,,,409.74978429917246,409.765393499285,0.0004064999520778656,409.765393499285,409.765393499285,409.96569739934057,410.2490832991898,410.2490832991898,410.2490832991898,410.26580579951406,410.5009142998606,0.5,normal,0.25025639962404966,[0.026851851851851852],[0.3101851851851852],[1],[0],[0],[0.7502563996240497],410.50143359974027,410.51610659994185,410.8165458999574,411.93459929991513,,,,,,,,,,Bradley,001,2024-11-13_10h15.45.124,Foreperiod_task,2024.2.1post4,59.96832464331937,2024-11-13 10h15.54.717882 -0800,
32,0,32,[0.026851851851851852],[0.32037037037037036],[1],[0],[0],[1.567191899754107],,,,1,0,1,0,32,0,32,0,411.9505033995956,,,,,,,,,,,,411.93489149957895,411.9505033995956,0.00030540022999048233,411.9505033995956,411.9505033995956,412.15122539922595,,,,,413.50274399947375,2,normal,-0.432808100245893,[0.026851851851851852],[0.32037037037037036],[1],[0],[0],[1.567191899754107],413.5030622994527,413.517796699889,413.81886480003595,414.8702416997403,,,,,,,,413.517796699889,,Bradley,001,2024-11-13_10h15.45.124,Foreperiod_task,2024.2.1post4,59.96832464331937,2024-11-13 10h15.54.717882 -0800,
33,0,33,[0.025],[0.3314814814814815],[1],[0],[0],[0.7840347001329064],,,,1,0,1,0,33,0,33,0,414.8862151997164,,,,,,,,,,,,414.87050989922136,414.8862151997164,0.0002820994704961777,414.8862151997164,414.8862151997164,415.0864561991766,415.3700099000707,415.3700099000707,415.3700099000707,415.3868992999196,415.65527329966426,0.5,normal,0.28403470013290644,[0.025],[0.3314814814814815],[1],[0],[0],[0.7840347001329064],415.65570619981736,415.67022669967264,415.9704461991787,417.00532849971205,,,,,,,,,,Bradley,001,2024-11-13_10h15.45.124,Foreperiod_task,2024.2.1post4,59.96832464331937,2024-11-13 10h15.54.717882 -0800,
34,0,34,[0.025],[0.3314814814814815],[1],[0],[0],[2.26912559941411],,,,1,0,1,0,34,0,34,0,417.021315199323,,,,,,,,,,,,417.0056069996208,417.021315199323,0.0002947002649307251,417.021315199323,417.021315199323,417.2216592999175,419.0062654996291,419.0062654996291,419.0062654996291,419.0229992996901,419.27561059966683,2,normal,0.2691255994141102,[0.025],[0.3314814814814815],[1],[0],[0],[2.26912559941411],419.27603890001774,419.2896668994799,419.5901240995154,420.6247914992273,,,,,,,,,,Bradley,001,2024-11-13_10h15.45.124,Foreperiod_task,2024.2.1post4,59.96832464331937,2024-11-13 10h15.54.717882 -0800,
35,0,35,[0.025],[0.3314814814814815],[1],[0],[0],[0.9351781001314521],,,,1,0,1,0,35,0,35,0,420.640776399523,,,,,,,,,,,,420.6249786997214,420.640776399523,0.0001983996480703354,420.640776399523,420.640776399523,420.8412833996117,421.1249802997336,421.1249802997336,421.1249802997336,421.14151779934764,421.56111910007894,0.5,normal,0.4351781001314521,[0.025],[0.3314814814814815],[1],[0],[0],[0.9351781001314521],421.56162809953094,421.5750595992431,421.87538249976933,423.1440773997456,,,,,,,,,,Bradley,001,2024-11-13_10h15.45.124,Foreperiod_task,2024.2.1post4,59.96832464331937,2024-11-13 10h15.54.717882 -0800,
36,0,36,[0.025],[0.3314814814814815],[1],[0],[0],[2.317700200714171],,,,1,0,1,0,36,0,36,0,423.1598904998973,,,,,,,,,,,,423.1443544998765,423.1598904998973,0.0002905000001192093,423.1598904998973,423.1598904998973,423.3602971993387,425.1448032995686,425.1448032995686,425.1448032995686,425.1615390991792,425.46284319926053,2,normal,0.31770020071417093,[0.025],[0.3314814814814815],[1],[0],[0],[2.317700200714171],425.4633101997897,425.47850030008703,425.7785898996517,426.9801805000752,,,,,,,,,,Bradley,001,2024-11-13_10h15.45.124,Foreperiod_task,2024.2.1post4,59.96832464331937,2024-11-13 10h15.54.717882 -0800,
37,0,37,[0.025],[0.3314814814814815],[1],[0],[0],[0.9839880997315049],,,,1,0,1,0,37,0,37,0,426.99663849920034,,,,,,,,,,,,426.98042809963226,426.99663849920034,0.0002619996666908264,426.99663849920034,426.99663849920034,427.1962835993618,427.48017059918493,427.48017059918493,427.48017059918493,427.4967749994248,427.96513229981065,0.5,normal,0.4839880997315049,[0.025],[0.3314814814814815],[1],[0],[0],[0.9839880997315049],427.9654802996665,427.9805213995278,428.2807143991813,429.3490047995001,,,,,,,,,,Bradley,001,2024-11-13_10h15.45.124,Foreperiod_task,2024.2.1post4,59.96832464331937,2024-11-13 10h15.54.717882 -0800,
38,0,38,[0.025],[0.3314814814814815],[1],[0],[0],[0.8005765993148088],,,,1,0,1,0,38,0,38,0,429.3649653997272,,,,,,,,,,,,429.3492879997939,429.3649653997272,0.00030159950256347656,429.3649653997272,429.3649653997272,429.56524389982224,429.84890849981457,429.84890849981457,429.84890849981457,429.86544599942863,430.1506359996274,0.5,normal,0.30057659931480885,[0.025],[0.3314814814814815],[1],[0],[0],[0.8005765993148088],430.1510479999706,430.1656979992986,430.46605749987066,431.75115979928523,,,,,,,,,,Bradley,001,2024-11-13_10h15.45.124,Foreperiod_task,2024.2.1post4,59.96832464331937,2024-11-13 10h15.54.717882 -0800,
39,0,39,[0.025],[0.3314814814814815],[1],[0],[0],[2.2679561004042625],,,,1,0,1,0,39,0,39,0,431.76697589922696,,,,,,,,,,,,431.7514332998544,431.76697589922696,0.00028819963335990906,431.76697589922696,431.76697589922696,431.9671026999131,433.75189149938524,433.75189149938524,433.75189149938524,433.7686286000535,434.02015749923885,2,normal,0.26795610040426254,[0.025],[0.3314814814814815],[1],[0],[0],[2.2679561004042625],434.02064009942114,434.0355281000957,434.33620359934866,435.4207792999223,,,,,,,,,,Bradley,001,2024-11-13_10h15.45.124,Foreperiod_task,2024.2.1post4,59.96832464331937,2024-11-13 10h15.54.717882 -0800,
40,0,40,[0.025],[0.337037037037037],[1],[0],[0],[2.2512744003906846],,,,1,0,1,0,40,0,40,0,435.43667119927704,,,,,,,,,,,,435.42105629947037,435.43667119927704,0.00029399991035461426,435.43667119927704,435.43667119927704,435.6359025994316,437.4216543994844,437.4216543994844,437.4216543994844,437.43837819993496,437.6729577993974,2,normal,0.2512744003906846,[0.025],[0.337037037037037],[1],[0],[0],[2.2512744003906846],437.673326799646,437.68856029957533,437.9888385999948,439.2239532992244,,,,,,,,,,Bradley,001,2024-11-13_10h15.45.124,Foreperiod_task,2024.2.1post4,59.96832464331937,2024-11-13 10h15.54.717882 -0800,
41,0,41,[0.025],[0.337037037037037],[1],[0],[0],[0.7668892992660403],,,,1,0,1,0,41,0,41,0,439.2398678995669,,,,,,,,,,,,439.2242264999077,439.2398678995669,0.00028830021619796753,439.2398678995669,439.2398678995669,439.4399157995358,439.7236048998311,439.7236048998311,439.7236048998311,439.7401703996584,439.99185639992356,0.5,normal,0.2668892992660403,[0.025],[0.337037037037037],[1],[0],[0],[0.7668892992660403],439.9922221992165,440.0074279997498,440.30767049919814,441.47482529934496,,,,,,,,,,Bradley,001,2024-11-13_10h15.45.124,Foreperiod_task,2024.2.1post4,59.96832464331937,2024-11-13 10h15.54.717882 -0800,
42,0,42,[0.025],[0.337037037037037],[1],[0],[0],[0.800955000333488],,,,1,0,1,0,42,0,42,0,441.4908828996122,,,,,,,,,,,,441.4749452993274,441.4908828996122,0.00012589991092681885,441.4908828996122,441.4908828996122,441.69134049955755,441.9755329992622,441.9755329992622,441.9755329992622,441.99217600002885,442.2768030995503,0.5,normal,0.300955000333488,[0.025],[0.337037037037037],[1],[0],[0],[0.800955000333488],442.2771871993318,442.2917849998921,442.59209090005606,443.49361679982394,,,,,,,,,,Bradley,001,2024-11-13_10h15.45.124,Foreperiod_task,2024.2.1post4,59.96832464331937,2024-11-13 10h15.54.717882 -0800,
43,0,43,[0.025],[0.337037037037037],[1],[0],[0],[0.8833741992712021],,,,1,0,1,0,43,0,43,0,443.5102917999029,,,,,,,,,,,,443.49382249917835,443.5102917999029,0.00021639931946992874,443.5102917999029,443.5102917999029,443.7103671999648,443.9938865993172,443.9938865993172,443.9938865993172,444.01068519987166,444.3775482997298,0.5,normal,0.3833741992712021,[0.025],[0.337037037037037],[1],[0],[0],[0.8833741992712021],444.3777175992727,444.39377210009843,444.69380040001124,446.0291808992624,,,,,,,,,,Bradley,001,2024-11-13_10h15.45.124,Foreperiod_task,2024.2.1post4,59.96832464331937,2024-11-13 10h15.54.717882 -0800,
44,0,44,[0.025],[0.337037037037037],[1],[0],[0],[2.334969500079751],,,,1,0,1,0,44,0,44,0,446.0453042993322,,,,,,,,,,,,446.02943209931254,446.0453042993322,0.00026320014148950577,446.0453042993322,446.0453042993322,446.2451643999666,448.03014459926635,448.03014459926635,448.03014459926635,448.04687939956784,448.3651136998087,2,normal,0.334969500079751,[0.025],[0.337037037037037],[1],[0],[0],[2.334969500079751],448.3656163997948,448.3804716998711,448.6807130994275,449.68170559965074,,,,,,,,,,Bradley,001,2024-11-13_10h15.45.124,Foreperiod_task,2024.2.1post4,59.96832464331937,2024-11-13 10h15.54.717882 -0800,
45,0,45,[0.025],[0.337037037037037],[1],[0],[0],[2.3689347999170423],,,,1,0,1,0,45,0,45,0,449.6984711997211,,,,,,,,,,,,449.6817999994382,449.6984711997211,9.860005229711533e-05,449.6984711997211,449.6984711997211,449.8984576994553,451.68291749991477,451.68291749991477,451.68291749991477,451.7000518999994,452.05148889962584,2,normal,0.36893479991704226,[0.025],[0.337037037037037],[1],[0],[0],[2.3689347999170423],452.0519885998219,452.0670109996572,452.366679799743,453.3520359992981,,,,,,,,,,Bradley,001,2024-11-13_10h15.45.124,Foreperiod_task,2024.2.1post4,59.96832464331937,2024-11-13 10h15.54.717882 -0800,
46,0,46,[0.012037037037037037],[0.32407407407407407],[1],[0],[0],[2.6348926993086934],,,,1,0,1,0,46,0,46,0,453.3679000996053,,,,,,,,,,,,453.35227359924465,453.3679000996053,0.00025379937142133713,453.3679000996053,453.3679000996053,453.5677171992138,455.3530363999307,455.3530363999307,455.3530363999307,455.36941839940846,455.9877860993147,2,normal,0.6348926993086934,[0.012037037037037037],[0.32407407407407407],[1],[0],[0],[2.6348926993086934],455.9882895993069,456.00350069999695,456.30373209994286,457.18834939971566,,,,,,,,,,Bradley,001,2024-11-13_10h15.45.124,Foreperiod_task,2024.2.1post4,59.96832464331937,2024-11-13 10h15.54.717882 -0800,
47,0,47,[-0.005555555555555556],[0.3138888888888889],[1],[0],[0],[1.834922599606216],,,,1,0,1,0,47,0,47,0,457.20450259931386,,,,,,,,,,,,457.1885902993381,457.20450259931386,0.0002578999847173691,457.20450259931386,457.20450259931386,457.40467859990895,458.47217469941825,458.47217469941825,458.47217469941825,458.4889906998724,459.0242334995419,1.276299336121629,surprise,0.5586232634845869,[-0.005555555555555556],[0.3138888888888889],[1],[0],[0],[1.834922599606216],459.02463249955326,459.03966940008104,459.34004799928516,460.37483219988644,,,,,,,,,,Bradley,001,2024-11-13_10h15.45.124,Foreperiod_task,2024.2.1post4,59.96832464331937,2024-11-13 10h15.54.717882 -0800,
48,0,48,[-0.005555555555555556],[0.3138888888888889],[1],[0],[0],[2.3010440999642015],,,,1,0,1,0,48,0,48,0,460.39083789940923,,,,,,,,,,,,460.37510930001736,460.39083789940923,0.00029239989817142487,460.39083789940923,460.39083789940923,460.59099559951574,462.3758139992133,462.3758139992133,462.3758139992133,462.3924719998613,462.67666149977595,2,normal,0.30104409996420145,[-0.005555555555555556],[0.3138888888888889],[1],[0],[0],[2.3010440999642015],462.6769704995677,462.69290199968964,462.99240879993886,464.31130719929934,,,,,,,,,,Bradley,001,2024-11-13_10h15.45.124,Foreperiod_task,2024.2.1post4,59.96832464331937,2024-11-13 10h15.54.717882 -0800,
49,0,49,[0.0],[0.3212962962962963],[1],[0],[0],[0.78322449978441],,,,1,0,1,0,49,0,49,0,464.3274560999125,,,,,,,,,,,,464.31159000005573,464.3274560999125,0.0002984004095196724,464.3274560999125,464.3274560999125,464.5275430995971,464.8110420992598,464.8110420992598,464.8110420992598,464.82787909917533,465.09550069924444,0.5,normal,0.28322449978441,[0.0],[0.3212962962962963],[1],[0],[0],[0.78322449978441],465.0958560993895,465.11152020003647,465.4115281999111,466.62998549919575,,,,,,,,,,Bradley,001,2024-11-13_10h15.45.124,Foreperiod_task,2024.2.1post4,59.96832464331937,2024-11-13 10h15.54.717882 -0800,
50,0,50,[0.0],[0.3212962962962963],[1],[0],[0],[2.2681871000677347],,,,1,0,1,0,50,0,50,0,466.6460066996515,,,,,,,,,,,,466.6302976999432,466.6460066996515,0.000332600437104702,466.6460066996515,466.6460066996515,466.84632680006325,468.6310022994876,468.6310022994876,468.6310022994876,468.64770199917257,468.8992937998846,2,normal,0.2681871000677347,[0.0],[0.3212962962962963],[1],[0],[0],[2.2681871000677347],468.8997169993818,468.91454949975014,469.21477419976145,470.39983680006117,,,,,,,,,,Bradley,001,2024-11-13_10h15.45.124,Foreperiod_task,2024.2.1post4,59.96832464331937,2024-11-13 10h15.54.717882 -0800,
51,0,51,[0.0],[0.3212962962962963],[1],[0],[0],[2.334475099109113],,,,1,0,1,0,51,0,51,0,470.41576509922743,,,,,,,,,,,,470.40011749975383,470.41576509922743,0.0002960003912448883,470.41576509922743,470.41576509922743,470.6159189995378,472.40074389986694,472.40074389986694,472.40074389986694,472.41752429958433,472.7352833999321,2,normal,0.3344750991091132,[0.0],[0.3212962962962963],[1],[0],[0],[2.334475099109113],472.73579099960625,472.7509957998991,473.0512750996277,474.052668299526,,,,,,,,,,Bradley,001,2024-11-13_10h15.45.124,Foreperiod_task,2024.2.1post4,59.96832464331937,2024-11-13 10h15.54.717882 -0800,
