thisN,thisTrialN,thisRepN,mouse.x,mouse.y,mouse.leftButton,mouse.midButton,mouse.rightButton,mouse.time,Intertrial_Mouse.x,Intertrial_Mouse.y,Intertrial_Mouse.leftButton,Intertrial_Mouse.midButton,Intertrial_Mouse.rightButton,Intertrial_Mouse.time,key_resp_5.keys,key_resp_5.rt,key_resp_5.duration,trials_3.thisRepN,trials_3.thisTrialN,trials_3.thisN,trials_3.thisIndex,trials_2.thisRepN,trials_2.thisTrialN,trials_2.thisN,trials_2.thisIndex,thisRow.t,notes,Welcome_Screen.started,Welcome_Text.started,mouse_2.started,Welcome_Screen.stopped,mouse_2.x,mouse_2.y,mouse_2.leftButton,mouse_2.midButton,mouse_2.rightButton,mouse_2.time,Trial_2.started,PLUS_FP.started,mouse.started,Photodiode_plus.started,Photodiode_plus.stopped,PLUS_FP.stopped,polygon.started,Photodiode_polygon.started,Photodiode_polygon.stopped,Trial_2.stopped,FixDur,Type,RT,trials_2.mouse.x,trials_2.mouse.y,trials_2.mouse.leftButton,trials_2.mouse.midButton,trials_2.mouse.rightButton,trials_2.mouse.time,Intertrial_Period.started,Photodiode_2.started,Intertrial_Mouse.started,Photodiode_2.stopped,Intertrial_Period.stopped,trials_2.Intertrial_Mouse.x,trials_2.Intertrial_Mouse.y,trials_2.Intertrial_Mouse.leftButton,trials_2.Intertrial_Mouse.midButton,trials_2.Intertrial_Mouse.rightButton,trials_2.Intertrial_Mouse.time,BREAK.started,key_resp_5.started,text_3.started,BREAK.stopped,trials_3.key_resp_5.keys,trials_3.key_resp_5.rt,trials_3.key_resp_5.duration,text.started,text.stopped,participant,session,date,expName,psychopyVersion,frameRate,expStart,
,,,,,,,,,,,,,,,,,,,,,,,,,,,,0.003179199993610382,0.01008679997175932,0.0030201002955436707,26.65135459974408,[-0.1111111111111111],[0.1388888888888889],[1],[0],[0],[26.647531700320542],,,,,,,,,,,,,,,,,,,,,,,,,,,,,,,,,,,,,,,,Kelsey,Kelsey,2024-11-22_13h31.35.479,Foreperiod_task,2024.2.1post4,59.87059544845408,2024-11-22 13h31.48.355505 -0800,
0,0,0,[-0.1111111111111111],[0.1388888888888889],[1],[0],[0],[1.7652521999552846],[],[],[],[],[],[],,,,0,0,0,0,0,0,0,0,26.666621099226177,,,,,,,,,,,,26.652802399359643,26.666621099226177,0.0013336995616555214,26.666621099226177,26.866927499882877,28.051150099374354,28.051150099374354,28.051150099374354,28.067838199436665,28.418504299595952,1.397128771879125,surprise,0.3681234280761596,[-0.1111111111111111],[0.1388888888888889],[1],[0],[0],[1.7652521999552846],28.41871659923345,28.43382819928229,0.00016039982438087463,28.735221999697387,29.969726899638772,[],[],[],[],[],[],,,,,,,,,,Kelsey,Kelsey,2024-11-22_13h31.35.479,Foreperiod_task,2024.2.1post4,59.87059544845408,2024-11-22 13h31.48.355505 -0800,
1,0,1,[-0.1111111111111111],[0.1388888888888889],[1],[0],[0],[1.3176080007106066],[],[],[],[],[],[],,,,0,0,0,0,1,0,1,0,29.98604009952396,,,,,,,,,,,,29.970088099129498,29.98604009952396,0.00028190016746520996,29.98604009952396,30.18619539961219,30.987138299271464,30.987138299271464,30.987138299271464,31.0036342991516,31.28847079910338,1.0021983959672724,surprise,0.3154096047433341,[-0.1111111111111111],[0.1388888888888889],[1],[0],[0],[1.3176080007106066],31.288934499956667,31.303950099274516,0.0003343997523188591,31.60412689950317,32.97278989944607,[],[],[],[],[],[],,,,,,,,,,Kelsey,Kelsey,2024-11-22_13h31.35.479,Foreperiod_task,2024.2.1post4,59.87059544845408,2024-11-22 13h31.48.355505 -0800,
2,0,2,[-0.1111111111111111],[0.1388888888888889],[1],[0],[0],[0.8834219994023442],[],[],[],[],[],[],,,,0,0,0,0,2,0,2,0,32.98855139967054,,,,,,,,,,,,32.97316289972514,32.98855139967054,0.0002891998738050461,32.98855139967054,33.18859859928489,33.47241729963571,33.47241729963571,33.47241729963571,33.48902889993042,33.85729009937495,0.5,normal,0.3834219994023442,[-0.1111111111111111],[0.1388888888888889],[1],[0],[0],[0.8834219994023442],33.85765149910003,33.87268449924886,0.00024059973657131195,34.17297049984336,35.39138239994645,[],[],[],[],[],[],,,,,,,,,,Kelsey,Kelsey,2024-11-22_13h31.35.479,Foreperiod_task,2024.2.1post4,59.87059544845408,2024-11-22 13h31.48.355505 -0800,
3,0,3,[-0.1111111111111111],[0.1388888888888889],[1],[0],[0],[0.8168489998206496],[],[],[],[],[],[],,,,0,0,0,0,3,0,3,0,35.40726829972118,,,,,,,,,,,,35.39181449916214,35.40726829972118,0.0003565000370144844,35.40726829972118,35.607387899421155,35.891026799567044,35.891026799567044,35.891026799567044,35.90765519998968,36.209517899900675,0.5,normal,0.3168489998206496,[-0.1111111111111111],[0.1388888888888889],[1],[0],[0],[0.8168489998206496],36.21000629942864,36.22478279937059,0.0003325995057821274,36.524890000000596,37.40969939995557,[],[],[],[],[],[],,,,,,,,,,Kelsey,Kelsey,2024-11-22_13h31.35.479,Foreperiod_task,2024.2.1post4,59.87059544845408,2024-11-22 13h31.48.355505 -0800,
4,0,4,[-0.1111111111111111],[0.1388888888888889],[1],[0],[0],[0.833661399781704],[],[],[],[],[],[],,,,0,0,0,0,4,0,4,0,37.42565939947963,,,,,,,,,,,,37.41006839927286,37.42565939947963,0.00028249993920326233,37.42565939947963,37.62590149976313,37.9093321999535,37.9093321999535,37.9093321999535,37.925924599170685,38.24462799914181,0.5,normal,0.33366139978170395,[-0.1111111111111111],[0.1388888888888889],[1],[0],[0],[0.833661399781704],38.245146699249744,38.259727999567986,0.00034510064870119095,38.55995299946517,39.54479399975389,[],[],[],[],[],[],,,,,,,,,,Kelsey,Kelsey,2024-11-22_13h31.35.479,Foreperiod_task,2024.2.1post4,59.87059544845408,2024-11-22 13h31.48.355505 -0800,
5,0,5,[-0.1111111111111111],[0.1388888888888889],[1],[0],[0],[0.8169353995472193],[],[],[],[],[],[],,,,0,0,0,0,5,0,5,0,39.560683199204504,,,,,,,,,,,,39.54515289980918,39.560683199204504,0.0002862000837922096,39.560683199204504,39.7608696995303,40.044479199685156,40.044479199685156,40.044479199685156,40.06110950000584,40.362871799618006,0.5,normal,0.3169353995472193,[-0.1111111111111111],[0.1388888888888889],[1],[0],[0],[0.8169353995472193],40.36329109966755,40.37779179960489,0.00030030030757188797,40.67845579981804,41.996792499907315,[],[],[],[],[],[],,,,,,,,,,Kelsey,Kelsey,2024-11-22_13h31.35.479,Foreperiod_task,2024.2.1post4,59.87059544845408,2024-11-22 13h31.48.355505 -0800,
6,0,6,[-0.1111111111111111],[0.1388888888888889],[1],[0],[0],[2.4502731999382377],[],[],[],[],[],[],,,,0,0,0,0,6,0,6,0,42.01265159994364,,,,,,,,,,,,41.99714189954102,42.01265159994364,0.000283900648355484,42.01265159994364,42.21286689955741,43.997717699967325,43.997717699967325,43.997717699967325,44.01445159967989,44.447846699506044,2,normal,0.45027319993823767,[-0.1111111111111111],[0.1388888888888889],[1],[0],[0],[2.4502731999382377],44.44812879990786,44.46457159984857,0.00023589935153722763,44.76499719917774,45.983044299297035,[],[],[],[],[],[],,,,,,,,,,Kelsey,Kelsey,2024-11-22_13h31.35.479,Foreperiod_task,2024.2.1post4,59.87059544845408,2024-11-22 13h31.48.355505 -0800,
7,0,7,[-0.1111111111111111],[0.1388888888888889],[1],[0],[0],[0.9175311997532845],[],[],[],[],[],[],,,,0,0,0,0,7,0,7,0,45.999395799823105,,,,,,,,,,,,45.983388499356806,45.999395799823105,0.00027109961956739426,45.999395799823105,46.19966599997133,46.48312249965966,46.48312249965966,46.48312249965966,46.50008269958198,46.901888399384916,0.5,normal,0.41753119975328445,[-0.1111111111111111],[0.1388888888888889],[1],[0],[0],[0.9175311997532845],46.902428899891675,46.9168484993279,0.000408099964261055,47.21695669926703,48.55207399930805,[],[],[],[],[],[],,,,,,,,,,Kelsey,Kelsey,2024-11-22_13h31.35.479,Foreperiod_task,2024.2.1post4,59.87059544845408,2024-11-22 13h31.48.355505 -0800,
8,0,8,[-0.1111111111111111],[0.1388888888888889],[1],[0],[0],[2.3350896993651986],[],[],[],[],[],[],,,,0,0,0,0,8,0,8,0,48.568164699710906,,,,,,,,,,,,48.55244919937104,48.568164699710906,0.0002934001386165619,48.568164699710906,48.76822039950639,50.5532834995538,50.5532834995538,50.5532834995538,50.56985619943589,50.88869939930737,2,normal,0.3350896993651986,[-0.1111111111111111],[0.1388888888888889],[1],[0],[0],[2.3350896993651986],50.88929650001228,50.903589899651706,0.00046790018677711487,51.20390159916133,52.12180029973388,[],[],[],[],[],[],,,,,,,,,,Kelsey,Kelsey,2024-11-22_13h31.35.479,Foreperiod_task,2024.2.1post4,59.87059544845408,2024-11-22 13h31.48.355505 -0800,
9,0,9,[-0.1111111111111111],[0.1388888888888889],[1],[0],[0],[0.9005415001884103],[],[],[],[],[],[],,,,0,0,0,0,9,0,9,0,52.13775260001421,,,,,,,,,,,,52.122169899754226,52.13775260001421,0.00027399975806474686,52.13775260001421,52.33847039937973,52.62169439997524,52.62169439997524,52.62169439997524,52.638286099769175,53.02352099958807,0.5,normal,0.4005415001884103,[-0.1111111111111111],[0.1388888888888889],[1],[0],[0],[0.9005415001884103],53.024115099571645,53.038628599606454,0.00046010036021471024,53.33879499975592,54.306881099939346,[],[],[],[],[],[],,,,,,,,,,Kelsey,Kelsey,2024-11-22_13h31.35.479,Foreperiod_task,2024.2.1post4,59.87059544845408,2024-11-22 13h31.48.355505 -0800,
10,0,10,[-0.1111111111111111],[0.1388888888888889],[1],[0],[0],[1.3676800997927785],[],[],[],[],[],[],,,,0,0,0,0,10,0,10,0,54.32297409977764,,,,,,,,,,,,54.30720629915595,54.32297409977764,0.00025669950991868973,54.32297409977764,54.52241269964725,55.39053739979863,55.39053739979863,55.39053739979863,55.407244799658656,55.675591100007296,1.0735311809216537,surprise,0.2941489188711248,[-0.1111111111111111],[0.1388888888888889],[1],[0],[0],[1.3676800997927785],55.67604439985007,55.690759499557316,0.00032579991966485977,55.990980699658394,57.125981899909675,[],[],[],[],[],[],,,,,,,,,,Kelsey,Kelsey,2024-11-22_13h31.35.479,Foreperiod_task,2024.2.1post4,59.87059544845408,2024-11-22 13h31.48.355505 -0800,
11,0,11,[-0.1111111111111111],[0.1388888888888889],[1],[0],[0],[0.7834553997963667],[],[],[],[],[],[],,,,0,0,0,0,11,0,11,0,57.141899899579585,,,,,,,,,,,,57.126330299302936,57.141899899579585,0.00027270056307315826,57.141899899579585,57.342107399366796,57.62572529911995,57.62572529911995,57.62572529911995,57.642363499850035,57.910441800020635,0.5,normal,0.2834553997963667,[-0.1111111111111111],[0.1388888888888889],[1],[0],[0],[0.7834553997963667],57.91088399942964,57.925991599448025,0.0003305003046989441,58.226267899386585,59.377912499941885,[],[],[],[],[],[],,,,,,,,,,Kelsey,Kelsey,2024-11-22_13h31.35.479,Foreperiod_task,2024.2.1post4,59.87059544845408,2024-11-22 13h31.48.355505 -0800,
12,0,12,[-0.1111111111111111],[0.1388888888888889],[1],[0],[0],[2.3686159001663327],[],[],[],[],[],[],,,,0,0,0,0,12,0,12,0,59.39381239935756,,,,,,,,,,,,59.37826549913734,59.39381239935756,0.00028430018573999405,59.39381239935756,59.59360209945589,61.37893629912287,61.37893629912287,61.37893629912287,61.394690899178386,61.747814799658954,2,normal,0.3686159001663327,[-0.1111111111111111],[0.1388888888888889],[1],[0],[0],[2.3686159001663327],61.74848929978907,61.762624399736524,0.0005112001672387123,62.06266149971634,63.2144045997411,[],[],[],[],[],[],,,,,,,,,,Kelsey,Kelsey,2024-11-22_13h31.35.479,Foreperiod_task,2024.2.1post4,59.87059544845408,2024-11-22 13h31.48.355505 -0800,
13,0,13,[-0.1111111111111111],[0.1388888888888889],[1],[0],[0],[0.8336648000404239],[],[],[],[],[],[],,,,0,0,0,0,13,0,13,0,63.230389799922705,,,,,,,,,,,,63.214750399813056,63.230389799922705,0.00027139950543642044,63.230389799922705,63.430674399249256,63.71411609929055,63.71411609929055,63.71411609929055,63.73076029960066,64.04912239965051,0.5,normal,0.33366480004042387,[-0.1111111111111111],[0.1388888888888889],[1],[0],[0],[0.8336648000404239],64.04958939924836,64.06453499943018,0.0003297002986073494,64.36472479999065,65.53294879943132,[],[],[],[],[],[],,,,,,,,,,Kelsey,Kelsey,2024-11-22_13h31.35.479,Foreperiod_task,2024.2.1post4,59.87059544845408,2024-11-22 13h31.48.355505 -0800,
14,0,14,[-0.1111111111111111],[0.1388888888888889],[1],[0],[0],[2.301954999566078],[],[],[],[],[],[],,,,0,0,0,0,14,0,14,0,65.5490997992456,,,,,,,,,,,,65.53323889989406,65.5490997992456,0.0002321004867553711,65.5490997992456,65.74914729967713,67.5339644998312,67.5339644998312,67.5339644998312,67.55061159934849,67.83617179933935,2,normal,0.3019549995660782,[-0.1111111111111111],[0.1388888888888889],[1],[0],[0],[2.301954999566078],67.83674169983715,67.85103359911591,0.00039319973438978195,68.15115359984338,69.30294179916382,[],[],[],[],[],[],,,,,,,,,,Kelsey,Kelsey,2024-11-22_13h31.35.479,Foreperiod_task,2024.2.1post4,59.87059544845408,2024-11-22 13h31.48.355505 -0800,
15,0,15,[-0.1111111111111111],[0.1388888888888889],[1],[0],[0],[0.8671216005459428],[],[],[],[],[],[],,,,0,0,0,0,15,0,15,0,69.31871239934117,,,,,,,,,,,,69.30324209947139,69.31871239934117,0.00024430081248283386,69.31871239934117,69.51917859911919,69.80252279993147,69.80252279993147,69.80252279993147,69.81913289986551,70.17118959967047,0.5,normal,0.3671216005459428,[-0.1111111111111111],[0.1388888888888889],[1],[0],[0],[0.8671216005459428],70.17166859935969,70.18621479999274,0.0002990998327732086,70.48661929927766,71.82168799918145,[],[],[],[],[],[],,,,,,,,,,Kelsey,Kelsey,2024-11-22_13h31.35.479,Foreperiod_task,2024.2.1post4,59.87059544845408,2024-11-22 13h31.48.355505 -0800,
16,0,16,[-0.1111111111111111],[0.1388888888888889],[1],[0],[0],[2.3515183003619313],[],[],[],[],[],[],,,,0,0,0,0,16,0,16,0,71.83763129916042,,,,,,,,,,,,71.82202519942075,71.83763129916042,0.0002701999619603157,71.83763129916042,72.03759409952909,73.82262769993395,73.82262769993395,73.82262769993395,73.8390702996403,74.1743776993826,2,normal,0.3515183003619313,[-0.1111111111111111],[0.1388888888888889],[1],[0],[0],[2.3515183003619313],74.17492039967328,74.18952459935099,0.0004141004756093025,74.49000429920852,75.69174399971962,[],[],[],[],[],[],,,,,,,,,,Kelsey,Kelsey,2024-11-22_13h31.35.479,Foreperiod_task,2024.2.1post4,59.87059544845408,2024-11-22 13h31.48.355505 -0800,
17,0,17,[-0.1111111111111111],[0.1388888888888889],[1],[0],[0],[0.8333951998502016],[],[],[],[],[],[],,,,0,0,0,0,17,0,17,0,75.70758389960974,,,,,,,,,,,,75.69212109968066,75.70758389960974,0.00028280075639486313,75.70758389960974,75.90754869952798,76.20779209956527,76.20779209956527,76.20779209956527,76.22453669924289,76.5261728996411,0.5,normal,0.3333951998502016,[-0.1111111111111111],[0.1388888888888889],[1],[0],[0],[0.8333951998502016],76.52651839982718,76.54156219959259,0.00023199990391731262,76.84184479992837,78.06009629927576,[],[],[],[],[],[],,,,,,,,,,Kelsey,Kelsey,2024-11-22_13h31.35.479,Foreperiod_task,2024.2.1post4,59.87059544845408,2024-11-22 13h31.48.355505 -0800,
18,0,18,[-0.1111111111111111],[0.1388888888888889],[1],[0],[0],[1.7678442001342773],[],[],[],[],[],[],,,,0,0,0,0,18,0,18,0,78.07598119974136,,,,,,,,,,,,78.06044989917427,78.07598119974136,0.0002741999924182892,78.07598119974136,78.27666729968041,79.49392079934478,79.49392079934478,79.49392079934478,79.51060529984534,79.82909839972854,1.4228112020011612,surprise,0.34503299813311616,[-0.1111111111111111],[0.1388888888888889],[1],[0],[0],[1.7678442001342773],79.82954419963062,79.84404719993472,0.0003001997247338295,80.14449519943446,81.09597789961845,[],[],[],[],[],[],,,,,,,,,,Kelsey,Kelsey,2024-11-22_13h31.35.479,Foreperiod_task,2024.2.1post4,59.87059544845408,2024-11-22 13h31.48.355505 -0800,
19,0,19,[-0.1111111111111111],[0.1388888888888889],[1],[0],[0],[0.8502252995967865],[],[],[],[],[],[],,,,0,0,0,0,19,0,19,0,81.11194839980453,,,,,,,,,,,,81.09632149990648,81.11194839980453,0.00027689989656209946,81.11194839980453,81.31210549920797,81.59569370001554,81.59569370001554,81.59569370001554,81.61237779911608,81.94727459922433,0.5,normal,0.3502252995967865,[-0.1111111111111111],[0.1388888888888889],[1],[0],[0],[0.8502252995967865],81.94764819927514,81.96269299928099,0.0002389000728726387,82.26295349933207,83.31435589957982,[],[],[],[],[],[],,,,,,,,,,Kelsey,Kelsey,2024-11-22_13h31.35.479,Foreperiod_task,2024.2.1post4,59.87059544845408,2024-11-22 13h31.48.355505 -0800,
20,0,20,[-0.1111111111111111],[0.1388888888888889],[1],[0],[0],[2.3509036004543304],[],[],[],[],[],[],,,,0,0,0,0,20,0,20,0,83.3302916996181,,,,,,,,,,,,83.31465579941869,83.3302916996181,0.0002367999404668808,83.3302916996181,83.53026229981333,85.31542299967259,85.31542299967259,85.31542299967259,85.33167889993638,85.66616419982165,2,normal,0.35090360045433044,[-0.1111111111111111],[0.1388888888888889],[1],[0],[0],[2.3509036004543304],85.66647919919342,85.68230269942433,0.00020720064640045166,85.98258109949529,87.25133499968797,[],[],[],[],[],[],,,,,,,,,,Kelsey,Kelsey,2024-11-22_13h31.35.479,Foreperiod_task,2024.2.1post4,59.87059544845408,2024-11-22 13h31.48.355505 -0800,
21,0,21,[-0.1111111111111111],[0.1388888888888889],[1],[0],[0],[2.3013251004740596],[],[],[],[],[],[],,,,0,0,0,0,21,0,21,0,87.2669918993488,,,,,,,,,,,,87.25165919959545,87.2669918993488,0.000245499424636364,87.2669918993488,87.46716699935496,89.25211909972131,89.25211909972131,89.25211909972131,89.26861039921641,89.55373189970851,2,normal,0.3013251004740596,[-0.1111111111111111],[0.1388888888888889],[1],[0],[0],[2.3013251004740596],89.55414079967886,89.56898029986769,0.0002763001248240471,89.86916969995946,91.17094059940428,[],[],[],[],[],[],,,,,,,,,,Kelsey,Kelsey,2024-11-22_13h31.35.479,Foreperiod_task,2024.2.1post4,59.87059544845408,2024-11-22 13h31.48.355505 -0800,
22,0,22,[-0.1111111111111111],[0.1388888888888889],[1],[0],[0],[2.318264300003648],[],[],[],[],[],[],,,,0,0,0,0,22,0,22,0,91.18689040001482,,,,,,,,,,,,91.17129829991609,91.18689040001482,0.00027900002896785736,91.18689040001482,91.3869648994878,93.1719648996368,93.1719648996368,93.1719648996368,93.18837230000645,93.4905047994107,2,normal,0.3182643000036478,[-0.1111111111111111],[0.1388888888888889],[1],[0],[0],[2.318264300003648],93.49087579920888,93.5059107998386,0.0002260003238916397,93.80598779954016,94.92435739934444,[],[],[],[],[],[],,,,,,,,,,Kelsey,Kelsey,2024-11-22_13h31.35.479,Foreperiod_task,2024.2.1post4,59.87059544845408,2024-11-22 13h31.48.355505 -0800,
23,0,23,[-0.1111111111111111],[0.1388888888888889],[1],[0],[0],[2.28479940071702],[],[],[],[],[],[],,,,0,0,0,0,23,0,23,0,94.94024829939008,,,,,,,,,,,,94.92469239979982,94.94024829939008,0.0002633994445204735,94.94024829939008,95.14037239924073,96.92523779999465,96.92523779999465,96.92523779999465,96.94195130001754,97.21026439964771,2,normal,0.28479940071702003,[-0.1111111111111111],[0.1388888888888889],[1],[0],[0],[2.28479940071702],97.21067639999092,97.22528319992125,0.00024900026619434357,97.52584369946271,98.72728699911386,[],[],[],[],[],[],,,,,,,,,,Kelsey,Kelsey,2024-11-22_13h31.35.479,Foreperiod_task,2024.2.1post4,59.87059544845408,2024-11-22 13h31.48.355505 -0800,
24,0,24,[-0.1111111111111111],[0.1388888888888889],[1],[0],[0],[0.8333836998790503],[],[],[],[],[],[],,,,0,0,0,0,24,0,24,0,98.74334119912237,,,,,,,,,,,,98.72762719914317,98.74334119912237,0.00026529934257268906,98.74334119912237,98.94342729914933,99.22665339987725,99.22665339987725,99.22665339987725,99.24378829915076,99.56175729911774,0.5,normal,0.33338369987905025,[-0.1111111111111111],[0.1388888888888889],[1],[0],[0],[0.8333836998790503],99.56221369933337,99.57740539964288,0.00032269954681396484,99.87752379942685,101.04615979921073,[],[],[],[],[],[],,,,,,,,,,Kelsey,Kelsey,2024-11-22_13h31.35.479,Foreperiod_task,2024.2.1post4,59.87059544845408,2024-11-22 13h31.48.355505 -0800,
25,0,25,[-0.1111111111111111],[0.1388888888888889],[1],[0],[0],[2.334664000198245],[],[],[],[],[],[],,,,0,0,0,0,25,0,25,0,101.06190009973943,,,,,,,,,,,,101.04653349984437,101.06190009973943,0.0002846997231245041,101.06190009973943,101.26196839939803,103.046829899773,103.046829899773,103.046829899773,103.06355819944292,103.38192379940301,2,normal,0.33466400019824505,[-0.1111111111111111],[0.1388888888888889],[1],[0],[0],[2.334664000198245],103.38234479911625,103.39672819990665,0.00028869975358247757,103.69727929960936,104.86576699931175,[],[],[],[],[],[],,,,,,,,,,Kelsey,Kelsey,2024-11-22_13h31.35.479,Foreperiod_task,2024.2.1post4,59.87059544845408,2024-11-22 13h31.48.355505 -0800,
26,0,26,[-0.1111111111111111],[0.1388888888888889],[1],[0],[0],[2.301410799846053],[],[],[],[],[],[],,,,0,0,0,0,26,0,26,0,104.88166229985654,,,,,,,,,,,,104.86612299922854,104.88166229985654,0.0002850005403161049,104.88166229985654,105.08193719945848,106.86663489975035,106.86663489975035,106.86663489975035,106.88337849918753,107.16822609957308,2,normal,0.3014107998460531,[-0.1111111111111111],[0.1388888888888889],[1],[0],[0],[2.301410799846053],107.16858819965273,107.18358509987593,0.0002596992999315262,107.48388089984655,108.85255129914731,[],[],[],[],[],[],,,,,,,,,,Kelsey,Kelsey,2024-11-22_13h31.35.479,Foreperiod_task,2024.2.1post4,59.87059544845408,2024-11-22 13h31.48.355505 -0800,
27,0,27,[-0.1111111111111111],[0.1388888888888889],[1],[0],[0],[2.2848304007202387],[],[],[],[],[],[],,,,0,0,0,0,27,0,27,0,108.86829519923776,,,,,,,,,,,,108.85289479978383,108.86829519923776,0.00026530027389526367,108.86829519923776,109.06855439953506,110.85340139921755,110.85340139921755,110.85340139921755,110.87016019970179,111.13846229948103,2,normal,0.2848304007202387,[-0.1111111111111111],[0.1388888888888889],[1],[0],[0],[2.2848304007202387],111.13912749942392,111.15359869971871,0.0005491999909281731,111.45353989955038,112.60552799981087,[],[],[],[],[],[],,,,,,,,,,Kelsey,Kelsey,2024-11-22_13h31.35.479,Foreperiod_task,2024.2.1post4,59.87059544845408,2024-11-22 13h31.48.355505 -0800,
28,0,28,[-0.1111111111111111],[0.1388888888888889],[1],[0],[0],[0.8833151999861002],[],[],[],[],[],[],,,,0,0,0,0,28,0,28,0,112.62144569959491,,,,,,,,,,,,112.60588449984789,112.62144569959491,0.000268799252808094,112.62144569959491,112.82157169934362,113.10520589910448,113.10520589910448,113.10520589910448,113.12185509968549,113.49004299938679,0.5,normal,0.3833151999861002,[-0.1111111111111111],[0.1388888888888889],[1],[0],[0],[0.8833151999861002],113.49049569945782,113.50554229971021,0.000327100045979023,113.80596799962223,115.00755339954048,[],[],[],[],[],[],,,,,,,,,,Kelsey,Kelsey,2024-11-22_13h31.35.479,Foreperiod_task,2024.2.1post4,59.87059544845408,2024-11-22 13h31.48.355505 -0800,
29,0,29,[-0.1111111111111111],[0.1388888888888889],[1],[0],[0],[2.2682394003495574],[],[],[],[],[],[],,,,0,0,0,0,29,0,29,0,115.0234333993867,,,,,,,,,,,,115.00789949949831,115.0234333993867,0.0002716006711125374,115.0234333993867,115.22370589990169,117.00851939991117,117.00851939991117,117.00851939991117,117.02510719932616,117.27700969949365,2,normal,0.2682394003495574,[-0.1111111111111111],[0.1388888888888889],[1],[0],[0],[2.2682394003495574],117.2775113992393,117.2919616997242,0.0002817995846271515,117.59255689941347,118.47735839989036,[],[],[],[],[],[],,,,,,,,,,Kelsey,Kelsey,2024-11-22_13h31.35.479,Foreperiod_task,2024.2.1post4,59.87059544845408,2024-11-22 13h31.48.355505 -0800,
30,0,30,[-0.1111111111111111],[0.1388888888888889],[1],[0],[0],[0.8333753002807498],[],[],[],[],[],[],,,,0,0,0,0,30,0,30,0,118.49299519974738,,,,,,,,,,,,118.47771109919995,118.49299519974738,0.00027900002896785736,118.49299519974738,118.69334579911083,118.97674569953233,118.97674569953233,118.97674569953233,118.99346099980175,119.31188379973173,0.5,normal,0.3333753002807498,[-0.1111111111111111],[0.1388888888888889],[1],[0],[0],[0.8333753002807498],119.31230979971588,119.32704869937152,0.0002774996683001518,119.6273321993649,120.9958488997072,[],[],[],[],[],[],,,,,,,,,,Kelsey,Kelsey,2024-11-22_13h31.35.479,Foreperiod_task,2024.2.1post4,59.87059544845408,2024-11-22 13h31.48.355505 -0800,
31,0,31,[-0.1111111111111111],[0.1388888888888889],[1],[0],[0],[1.3339069997891784],[],[],[],[],[],[],,,,0,0,0,0,31,0,31,0,121.01177109964192,,,,,,,,,,,,120.99617379996926,121.01177109964192,0.00025700032711029053,121.01177109964192,121.2119742995128,122.02937459945679,122.02937459945679,122.02937459945679,122.04606039915234,122.33079019933939,1.0267504668230538,surprise,0.30715653296612455,[-0.1111111111111111],[0.1388888888888889],[1],[0],[0],[1.3339069997891784],122.33118289988488,122.34618299920112,0.0002786004915833473,122.64611259941012,123.91489079967141,[],[],[],[],[],[],,,,,,,,,,Kelsey,Kelsey,2024-11-22_13h31.35.479,Foreperiod_task,2024.2.1post4,59.87059544845408,2024-11-22 13h31.48.355505 -0800,
32,0,32,[-0.1111111111111111],[0.1388888888888889],[1],[0],[0],[2.368137599900365],[],[],[],[],[],[],,,,0,0,0,0,32,0,32,0,123.93078009970486,,,,,,,,,,,,123.9152446994558,123.93078009970486,0.00028560031205415726,123.93078009970486,124.13130209967494,125.9158547995612,125.9158547995612,125.9158547995612,125.93258599936962,126.28418369963765,2,normal,0.3681375999003649,[-0.1111111111111111],[0.1388888888888889],[1],[0],[0],[2.368137599900365],126.28465529996902,126.2996141994372,0.00035819970071315765,126.59968349989504,127.88520329911262,[],[],[],[],[],[],,,,,,,,,,Kelsey,Kelsey,2024-11-22_13h31.35.479,Foreperiod_task,2024.2.1post4,59.87059544845408,2024-11-22 13h31.48.355505 -0800,
33,0,33,[-0.1111111111111111],[0.1388888888888889],[1],[0],[0],[2.3007375998422503],[],[],[],[],[],[],,,,0,0,0,0,33,0,33,0,127.90088550001383,,,,,,,,,,,,127.88559309951961,127.90088550001383,0.00030799955129623413,127.90088550001383,128.1008796999231,129.8858717000112,129.8858717000112,129.8858717000112,129.90244799945503,130.18703609984368,2,normal,0.30073759984225035,[-0.1111111111111111],[0.1388888888888889],[1],[0],[0],[2.3007375998422503],130.1874055992812,130.2028362993151,0.00027040019631385803,130.50311549939215,131.4045881992206,[],[],[],[],[],[],,,,,,,,,,Kelsey,Kelsey,2024-11-22_13h31.35.479,Foreperiod_task,2024.2.1post4,59.87059544845408,2024-11-22 13h31.48.355505 -0800,
34,0,34,[-0.1111111111111111],[0.1388888888888889],[1],[0],[0],[0.8671078998595476],[],[],[],[],[],[],,,,0,0,0,0,34,0,34,0,131.42054469976574,,,,,,,,,,,,131.4049408994615,131.42054469976574,0.00028190016746520996,131.42054469976574,131.620535899885,131.90415469929576,131.90415469929576,131.90415469929576,131.92097859922796,132.27282679919153,0.5,normal,0.3671078998595476,[-0.1111111111111111],[0.1388888888888889],[1],[0],[0],[0.8671078998595476],132.273268699646,132.28784049954265,0.00034030061215162277,132.58736239932477,133.60663979966193,[],[],[],[],[],[],,,,,,,,,,Kelsey,Kelsey,2024-11-22_13h31.35.479,Foreperiod_task,2024.2.1post4,59.87059544845408,2024-11-22 13h31.48.355505 -0800,
35,0,35,[-0.1111111111111111],[0.1388888888888889],[1],[0],[0],[2.267522200010717],[],[],[],[],[],[],,,,0,0,0,0,35,0,35,0,133.62240749970078,,,,,,,,,,,,133.60704449936748,133.62240749970078,0.0003085993230342865,133.62240749970078,133.82148619927466,135.60720600001514,135.60720600001514,135.60720600001514,135.62406009994447,135.87552349921316,2,normal,0.2675222000107169,[-0.1111111111111111],[0.1388888888888889],[1],[0],[0],[2.267522200010717],135.8759915996343,135.89056269917637,0.0002952003851532936,136.19108359981328,137.14243249967694,[],[],[],[],[],[],,,,,,,,,,Kelsey,Kelsey,2024-11-22_13h31.35.479,Foreperiod_task,2024.2.1post4,59.87059544845408,2024-11-22 13h31.48.355505 -0800,
36,0,36,[-0.1111111111111111],[0.1388888888888889],[1],[0],[0],[2.2858277997002006],[],[],[],[],[],[],,,,0,0,0,0,36,0,36,0,137.15881539974362,,,,,,,,,,,,137.14277429971844,137.15881539974362,0.00027120020240545273,137.15881539974362,137.35875219944865,139.14350899960846,139.14350899960846,139.14350899960846,139.16017999965698,139.42942729964852,2,normal,0.28582779970020056,[-0.1111111111111111],[0.1388888888888889],[1],[0],[0],[2.2858277997002006],139.42994109913707,139.4440083997324,0.00031429994851350784,139.74453029967844,140.66240209992975,[],[],[],[],[],[],,,,,,,,,,Kelsey,Kelsey,2024-11-22_13h31.35.479,Foreperiod_task,2024.2.1post4,59.87059544845408,2024-11-22 13h31.48.355505 -0800,
37,0,37,[-0.1111111111111111],[0.1388888888888889],[1],[0],[0],[0.883636400103569],[],[],[],[],[],[],,,,0,0,0,0,37,0,37,0,140.6781552992761,,,,,,,,,,,,140.66276999935508,140.6781552992761,0.0003001997247338295,140.6781552992761,140.878227699548,141.16189649980515,141.16189649980515,141.16189649980515,141.1786520993337,141.54717519972473,0.5,normal,0.38363640010356903,[-0.1111111111111111],[0.1388888888888889],[1],[0],[0],[0.883636400103569],141.54758139979094,141.56213349942118,0.0002659996971487999,141.86165769957006,143.08089459966868,[],[],[],[],[],[],,,,,,,,,,Kelsey,Kelsey,2024-11-22_13h31.35.479,Foreperiod_task,2024.2.1post4,59.87059544845408,2024-11-22 13h31.48.355505 -0800,
38,0,38,[-0.1111111111111111],[0.1388888888888889],[1],[0],[0],[2.2681499999016523],[],[],[],[],[],[],,,,0,0,0,0,38,0,38,0,143.09678429923952,,,,,,,,,,,,143.08129679970443,143.09678429923952,0.0003308001905679703,143.09678429923952,143.29711919929832,145.08180709928274,145.08180709928274,145.08180709928274,145.09859749954194,145.3504563998431,2,normal,0.26814999990165234,[-0.1111111111111111],[0.1388888888888889],[1],[0],[0],[2.2681499999016523],145.3508579991758,145.36540019977838,0.0002677999436855316,145.66571199987084,146.60071279946715,[],[],[],[],[],[],,,,,,,,,,Kelsey,Kelsey,2024-11-22_13h31.35.479,Foreperiod_task,2024.2.1post4,59.87059544845408,2024-11-22 13h31.48.355505 -0800,
39,0,39,[-0.1111111111111111],[0.1388888888888889],[1],[0],[0],[2.3513709995895624],[],[],[],[],[],[],,,,0,0,0,0,39,0,39,0,146.61639869958162,,,,,,,,,,,,146.60108169913292,146.61639869958162,0.0002878997474908829,146.61639869958162,146.8167422991246,148.60149049945176,148.60149049945176,148.60149049945176,148.6181703992188,148.9532482996583,2,normal,0.3513709995895624,[-0.1111111111111111],[0.1388888888888889],[1],[0],[0],[2.3513709995895624],148.95367849990726,148.96846729982644,0.00029509980231523514,149.26860670000315,150.62050739955157,[],[],[],[],[],[],,,,,,,,,,Kelsey,Kelsey,2024-11-22_13h31.35.479,Foreperiod_task,2024.2.1post4,59.87059544845408,2024-11-22 13h31.48.355505 -0800,
40,0,40,[-0.1111111111111111],[0.1388888888888889],[1],[0],[0],[2.284753399901092],[],[],[],[],[],[],,,,0,0,0,0,40,0,40,0,150.63646529987454,,,,,,,,,,,,150.62084409967065,150.63646529987454,0.00026280060410499573,150.63646529987454,150.83652559947222,152.62160049937665,152.62160049937665,152.62160049937665,152.63809419982135,152.90626459941268,2,normal,0.28475339990109205,[-0.1111111111111111],[0.1388888888888889],[1],[0],[0],[2.284753399901092],152.90661489963531,152.92171849962324,0.00023190025240182877,153.22181909997016,154.290457399562,[],[],[],[],[],[],,,,,,,,,,Kelsey,Kelsey,2024-11-22_13h31.35.479,Foreperiod_task,2024.2.1post4,59.87059544845408,2024-11-22 13h31.48.355505 -0800,
41,0,41,[-0.1111111111111111],[0.1388888888888889],[1],[0],[0],[0.8669702997431159],[],[],[],[],[],[],,,,0,0,0,0,41,0,41,0,154.3060890994966,,,,,,,,,,,,154.29080259986222,154.3060890994966,0.00026960019022226334,154.3060890994966,154.5062384000048,154.78997539915144,154.78997539915144,154.78997539915144,154.80657429993153,155.158437599428,0.5,normal,0.3669702997431159,[-0.1111111111111111],[0.1388888888888889],[1],[0],[0],[0.8669702997431159],155.15876999963075,155.1738365991041,0.00022219959646463394,155.47364899981767,156.74239649996161,[],[],[],[],[],[],,,,,,,,,,Kelsey,Kelsey,2024-11-22_13h31.35.479,Foreperiod_task,2024.2.1post4,59.87059544845408,2024-11-22 13h31.48.355505 -0800,
42,0,42,[-0.1111111111111111],[0.1388888888888889],[1],[0],[0],[2.3505592001602054],[],[],[],[],[],[],,,,0,0,0,0,42,0,42,0,156.7582286996767,,,,,,,,,,,,156.7427424993366,156.7582286996767,0.00027270056307315826,156.7582286996767,156.95831029955298,158.74339889921248,158.74339889921248,158.74339889921248,158.76000119931996,159.0936865992844,2,normal,0.35055920016020536,[-0.1111111111111111],[0.1388888888888889],[1],[0],[0],[2.3505592001602054],159.0938682993874,159.1101684998721,0.00013300031423568726,159.41039079986513,160.44538469985127,[],[],[],[],[],[],,,,,,,,,,Kelsey,Kelsey,2024-11-22_13h31.35.479,Foreperiod_task,2024.2.1post4,59.87059544845408,2024-11-22 13h31.48.355505 -0800,
43,0,43,[-0.1111111111111111],[0.1388888888888889],[1],[0],[0],[0.8170791007578373],[],[],[],[],[],[],,,,0,0,0,0,43,0,43,0,160.461270599626,,,,,,,,,,,,160.44571349956095,160.461270599626,0.00026530027389526367,160.461270599626,160.6614290997386,160.94482749979943,160.94482749979943,160.94482749979943,160.96157929953188,161.26356479991227,0.5,normal,0.3170791007578373,[-0.1111111111111111],[0.1388888888888889],[1],[0],[0],[0.8170791007578373],161.26403349917382,161.27874719910324,0.00034330040216445923,161.57896859943867,162.56380999926478,[],[],[],[],[],[],,,,,,,,,,Kelsey,Kelsey,2024-11-22_13h31.35.479,Foreperiod_task,2024.2.1post4,59.87059544845408,2024-11-22 13h31.48.355505 -0800,
44,0,44,[-0.1111111111111111],[0.1388888888888889],[1],[0],[0],[0.8166616996750236],[],[],[],[],[],[],,,,0,0,0,0,44,0,44,0,162.57977900002152,,,,,,,,,,,,162.5641635991633,162.57977900002152,0.00028880033642053604,162.57977900002152,162.77979899942875,163.06360160000622,163.06360160000622,163.06360160000622,163.0802749991417,163.38153079990298,0.5,normal,0.31666169967502356,[-0.1111111111111111],[0.1388888888888889],[1],[0],[0],[0.8166616996750236],163.38192279916257,163.39700079988688,0.00026830006390810013,163.6974340993911,164.86590989958495,[],[],[],[],[],[],,,,,,,,,,Kelsey,Kelsey,2024-11-22_13h31.35.479,Foreperiod_task,2024.2.1post4,59.87059544845408,2024-11-22 13h31.48.355505 -0800,
45,0,45,[-0.1111111111111111],[0.1388888888888889],[1],[0],[0],[0.7828522995114326],[],[],[],[],[],[],,,,0,0,0,0,45,0,45,0,164.88107769936323,,,,,,,,,,,,164.86627389956266,164.88107769936323,0.00029059965163469315,164.88107769936323,165.08131399936974,165.36536999978125,165.36536999978125,165.36536999978125,165.38202279992402,165.64977949950844,0.5,normal,0.28285229951143265,[-0.1111111111111111],[0.1388888888888889],[1],[0],[0],[0.7828522995114326],165.65014389995486,165.6653682999313,0.00027219951152801514,165.96573529951274,166.86747529916465,[],[],[],[],[],[],,,,,,,,,,Kelsey,Kelsey,2024-11-22_13h31.35.479,Foreperiod_task,2024.2.1post4,59.87059544845408,2024-11-22 13h31.48.355505 -0800,
46,0,46,[-0.1111111111111111],[0.1388888888888889],[1],[0],[0],[2.284476200118661],[],[],[],[],[],[],,,,0,0,0,0,46,0,46,0,166.8826541993767,,,,,,,,,,,,166.86779039911926,166.8826541993767,0.00025189947336912155,166.8826541993767,167.0834139995277,168.86835059989244,168.86835059989244,168.86835059989244,168.88427869975567,169.1526922993362,2,normal,0.2844762001186609,[-0.1111111111111111],[0.1388888888888889],[1],[0],[0],[2.284476200118661],169.15287379920483,169.16864359937608,0.00012800004333257675,169.46874439995736,170.58717969991267,[],[],[],[],[],[],,,,,,,,,,Kelsey,Kelsey,2024-11-22_13h31.35.479,Foreperiod_task,2024.2.1post4,59.87059544845408,2024-11-22 13h31.48.355505 -0800,
47,0,47,[-0.1111111111111111],[0.1388888888888889],[1],[0],[0],[2.300210500136018],[],[],[],[],[],[],,,,0,0,0,0,47,0,47,0,170.6031103990972,,,,,,,,,,,,170.5878608999774,170.6031103990972,0.0006386004388332367,170.6031103990972,170.80322709959,172.58851689938456,172.58851689938456,172.58851689938456,172.60479629971087,172.88875489961356,2,normal,0.3002105001360178,[-0.1111111111111111],[0.1388888888888889],[1],[0],[0],[2.300210500136018],172.8890860993415,172.9047523997724,0.0002549998462200165,173.20526109915227,174.3402728997171,[],[],[],[],[],[],,,,,,,,,,Kelsey,Kelsey,2024-11-22_13h31.35.479,Foreperiod_task,2024.2.1post4,59.87059544845408,2024-11-22 13h31.48.355505 -0800,
48,0,48,[-0.1111111111111111],[0.1388888888888889],[1],[0],[0],[2.3013067999854684],[],[],[],[],[],[],,,,0,0,0,0,48,0,48,0,174.35629709996283,,,,,,,,,,,,174.34063999913633,174.35629709996283,0.00028349924832582474,174.35629709996283,174.55631379969418,176.34119289927185,176.34119289927185,176.34119289927185,176.35786469932646,176.64277699962258,2,normal,0.3013067999854684,[-0.1111111111111111],[0.1388888888888889],[1],[0],[0],[2.3013067999854684],176.64319259952754,176.6581551991403,0.00029850006103515625,176.9587098993361,177.85975770000368,[],[],[],[],[],[],,,,,,,,,,Kelsey,Kelsey,2024-11-22_13h31.35.479,Foreperiod_task,2024.2.1post4,59.87059544845408,2024-11-22 13h31.48.355505 -0800,
49,0,49,[-0.1111111111111111],[0.1388888888888889],[1],[0],[0],[2.334840400144458],[],[],[],[],[],[],,,,0,0,0,0,49,0,49,0,177.8764599999413,,,,,,,,,,,,177.8600766994059,177.8764599999413,0.00025559961795806885,177.8764599999413,178.07592599932104,179.86094099935144,179.86094099935144,179.86094099935144,179.87767139915377,180.19570149946958,2,normal,0.3348404001444578,[-0.1111111111111111],[0.1388888888888889],[1],[0],[0],[2.334840400144458],180.19606079999357,180.21103519946337,0.00023240037262439728,180.51134420000017,181.54567009955645,[],[],[],[],[],[],,,,,,,,,,Kelsey,Kelsey,2024-11-22_13h31.35.479,Foreperiod_task,2024.2.1post4,59.87059544845408,2024-11-22 13h31.48.355505 -0800,
50,0,50,[-0.1111111111111111],[0.1388888888888889],[1],[0],[0],[0.851417800411582],[],[],[],[],[],[],,,,0,0,0,0,50,0,50,0,181.56218189932406,,,,,,,,,,,,181.54587329924107,181.56218189932406,0.00016110017895698547,181.56218189932406,181.76209769956768,182.04586640000343,182.04586640000343,182.04586640000343,182.06258969940245,182.39820659998804,0.5,normal,0.351417800411582,[-0.1111111111111111],[0.1388888888888889],[1],[0],[0],[0.851417800411582],182.39872659929097,182.4130157995969,0.00039609987288713455,182.7134280996397,184.08156659919769,[],[],[],[],[],[],,,,,,,,,,Kelsey,Kelsey,2024-11-22_13h31.35.479,Foreperiod_task,2024.2.1post4,59.87059544845408,2024-11-22 13h31.48.355505 -0800,
51,0,51,[-0.1111111111111111],[0.1388888888888889],[1],[0],[0],[2.284760999493301],[],[],[],[],[],[],,,,0,0,0,0,51,0,51,0,184.09757829923183,,,,,,,,,,,,184.08187909983099,184.09757829923183,0.00025170017033815384,184.09757829923183,184.29822129942477,186.08251579944044,186.08251579944044,186.08251579944044,186.0989483995363,186.36731819994748,2,normal,0.2847609994933009,[-0.1111111111111111],[0.1388888888888889],[1],[0],[0],[2.284760999493301],186.3677399996668,186.38273999933153,0.0003022998571395874,186.683069399558,187.95145369973034,[],[],[],[],[],[],,,,,,,,,,Kelsey,Kelsey,2024-11-22_13h31.35.479,Foreperiod_task,2024.2.1post4,59.87059544845408,2024-11-22 13h31.48.355505 -0800,
52,0,52,[-0.1111111111111111],[0.1388888888888889],[1],[0],[0],[2.3014217000454664],[],[],[],[],[],[],,,,0,0,0,0,52,0,52,0,187.96751869935542,,,,,,,,,,,,187.95179269928485,187.96751869935542,0.0002810005098581314,187.96751869935542,188.16780259925872,189.9521188000217,189.9521188000217,189.9521188000217,189.9693090999499,190.253973999992,2,normal,0.3014217000454664,[-0.1111111111111111],[0.1388888888888889],[1],[0],[0],[2.3014217000454664],190.25436189956963,190.26936249993742,0.00025819987058639526,190.56952579971403,191.77054739929736,[],[],[],[],[],[],,,,,,,,,,Kelsey,Kelsey,2024-11-22_13h31.35.479,Foreperiod_task,2024.2.1post4,59.87059544845408,2024-11-22 13h31.48.355505 -0800,
53,0,53,[-0.1111111111111111],[0.1388888888888889],[1],[0],[0],[0.8347592996433377],[],[],[],[],[],[],,,,0,0,0,0,53,0,53,0,191.78699719998986,,,,,,,,,,,,191.77066379971802,191.78699719998986,9.17995348572731e-05,191.78699719998986,191.9875102993101,192.27110529970378,192.27110529970378,192.27110529970378,192.2878125999123,192.60603049956262,0.5,normal,0.3347592996433377,[-0.1111111111111111],[0.1388888888888889],[1],[0],[0],[0.8347592996433377],192.6065046992153,192.62131839990616,0.0002988995984196663,192.9217195995152,194.00638329982758,[],[],[],[],[],[],,,,,,,,,,Kelsey,Kelsey,2024-11-22_13h31.35.479,Foreperiod_task,2024.2.1post4,59.87059544845408,2024-11-22 13h31.48.355505 -0800,
54,0,54,[-0.1111111111111111],[0.1388888888888889],[1],[0],[0],[0.8172954004257917],[],[],[],[],[],[],,,,0,0,0,0,54,0,54,0,194.0224576992914,,,,,,,,,,,,194.00672720000148,194.0224576992914,0.00028009992092847824,194.0224576992914,194.22263849992305,194.5062710000202,194.5062710000202,194.5062710000202,194.52288349997252,194.82480919919908,0.5,normal,0.31729540042579174,[-0.1111111111111111],[0.1388888888888889],[1],[0],[0],[0.8172954004257917],194.82526439987123,194.83983889967203,0.00032870005816221237,195.14007899910212,196.44194269925356,[],[],[],[],[],[],,,,,,,,,,Kelsey,Kelsey,2024-11-22_13h31.35.479,Foreperiod_task,2024.2.1post4,59.87059544845408,2024-11-22 13h31.48.355505 -0800,
55,0,55,[-0.1111111111111111],[0.1388888888888889],[1],[0],[0],[2.3017782997339964],[],[],[],[],[],[],,,,0,0,0,0,55,0,55,0,196.45771749969572,,,,,,,,,,,,196.4422733997926,196.45771749969572,0.00026400014758110046,196.45771749969572,196.65804199967533,198.44284979999065,198.44284979999065,198.44284979999065,198.45950349979103,198.74465979915112,2,normal,0.3017782997339964,[-0.1111111111111111],[0.1388888888888889],[1],[0],[0],[2.3017782997339964],198.7449730997905,198.7596942000091,0.00023020058870315552,199.05998959951103,200.39523949939758,[],[],[],[],[],[],,,,,,,,,,Kelsey,Kelsey,2024-11-22_13h31.35.479,Foreperiod_task,2024.2.1post4,59.87059544845408,2024-11-22 13h31.48.355505 -0800,
56,0,56,[-0.1111111111111111],[0.1388888888888889],[1],[0],[0],[2.318070599809289],[],[],[],[],[],[],,,,0,0,0,0,56,0,56,0,200.41119019966573,,,,,,,,,,,,200.39560159947723,200.41119019966573,0.0002716993913054466,200.41119019966573,200.61129339970648,202.3960673995316,202.3960673995316,202.3960673995316,202.41278499923646,202.71443609986454,2,normal,0.318070599809289,[-0.1111111111111111],[0.1388888888888889],[1],[0],[0],[2.318070599809289],202.7150037996471,202.72977939993143,0.0004458995535969734,203.0296023990959,204.04782049916685,[],[],[],[],[],[],,,,,,,,,,Kelsey,Kelsey,2024-11-22_13h31.35.479,Foreperiod_task,2024.2.1post4,59.87059544845408,2024-11-22 13h31.48.355505 -0800,
57,0,57,[-0.1111111111111111],[0.1388888888888889],[1],[0],[0],[0.8340770993381739],[],[],[],[],[],[],,,,0,0,0,0,57,0,57,0,204.06390349939466,,,,,,,,,,,,204.04802439920604,204.06390349939466,0.00016039982438087463,204.06390349939466,204.26415339950472,204.54793229978532,204.54793229978532,204.54793229978532,204.5646399995312,204.88286289945245,0.5,normal,0.33407709933817387,[-0.1111111111111111],[0.1388888888888889],[1],[0],[0],[0.8340770993381739],204.88327029999346,204.89822789933532,0.0002720998600125313,205.1984786996618,206.416760799475,[],[],[],[],[],[],,,,,,,,,,Kelsey,Kelsey,2024-11-22_13h31.35.479,Foreperiod_task,2024.2.1post4,59.87059544845408,2024-11-22 13h31.48.355505 -0800,
58,0,58,[-0.1111111111111111],[0.1388888888888889],[1],[0],[0],[2.3519928995519876],[],[],[],[],[],[],,,,0,0,0,0,58,0,58,0,206.43275939952582,,,,,,,,,,,,206.41708679962903,206.43275939952582,0.00026640016585588455,206.43275939952582,206.63226699922234,208.4176031993702,208.4176031993702,208.4176031993702,208.4345026994124,208.76986609958112,2,normal,0.35199289955198765,[-0.1111111111111111],[0.1388888888888889],[1],[0],[0],[2.3519928995519876],208.7702620998025,208.78463239967823,0.0002498999238014221,209.0850211996585,210.3037188993767,[],[],[],[],[],[],,,,,,,,,,Kelsey,Kelsey,2024-11-22_13h31.35.479,Foreperiod_task,2024.2.1post4,59.87059544845408,2024-11-22 13h31.48.355505 -0800,
59,0,59,[-0.1111111111111111],[0.1388888888888889],[1],[0],[0],[2.3180866995826364],[],[],[],[],[],[],,,,0,0,0,0,59,0,59,0,210.3193680997938,,,,,,,,,,,,210.30407469999045,210.3193680997938,0.0002878997474908829,210.3193680997938,210.5195237994194,212.30454859975725,212.30454859975725,212.30454859975725,212.32103859912604,212.62306229956448,2,normal,0.31808669958263636,[-0.1111111111111111],[0.1388888888888889],[1],[0],[0],[2.3180866995826364],212.62375069968402,212.63796609919518,0.0005657998844981194,212.93827259913087,214.19013739936054,[],[],[],[],[],[],,,,,,,,,,Kelsey,Kelsey,2024-11-22_13h31.35.479,Foreperiod_task,2024.2.1post4,59.87059544845408,2024-11-22 13h31.48.355505 -0800,
60,0,60,[-0.1111111111111111],[0.1388888888888889],[1],[0],[0],[2.3345898995175958],[],[],[],[],[],[],,,,0,0,0,0,60,0,60,0,214.2059602998197,,,,,,,,,,,,214.19045429956168,214.2059602998197,0.00024429988116025925,214.2059602998197,214.40604839939624,216.19094299990684,216.19094299990684,216.19094299990684,216.20759089943022,216.52591159939766,2,normal,0.33458989951759577,[-0.1111111111111111],[0.1388888888888889],[1],[0],[0],[2.3345898995175958],216.52631689980626,216.5412491997704,0.0002576000988483429,216.84167279955,218.2101088995114,[],[],[],[],[],[],,,,,,,,,,Kelsey,Kelsey,2024-11-22_13h31.35.479,Foreperiod_task,2024.2.1post4,59.87059544845408,2024-11-22 13h31.48.355505 -0800,
61,0,61,[-0.1111111111111111],[0.1388888888888889],[1],[0],[0],[2.318042100407183],[],[],[],[],[],[],,,,0,0,0,0,61,0,61,0,218.22588339913636,,,,,,,,,,,,218.21044499985874,218.22588339913636,0.000270000658929348,218.22588339913636,218.42615079972893,220.2110661994666,220.2110661994666,220.2110661994666,220.2277960991487,220.52932879980654,2,normal,0.31804210040718317,[-0.1111111111111111],[0.1388888888888889],[1],[0],[0],[2.318042100407183],220.52978639956564,220.5447079995647,0.0003157006576657295,220.84484539926052,221.8296226998791,[],[],[],[],[],[],,,,,,,,,,Kelsey,Kelsey,2024-11-22_13h31.35.479,Foreperiod_task,2024.2.1post4,59.87059544845408,2024-11-22 13h31.48.355505 -0800,
62,0,62,[-0.1111111111111111],[0.1388888888888889],[1],[0],[0],[0.8335975995287299],[],[],[],[],[],[],,,,0,0,0,0,62,0,62,0,221.8456304995343,,,,,,,,,,,,221.82996549922973,221.8456304995343,0.00027589965611696243,221.8456304995343,222.045061099343,222.32915159966797,222.32915159966797,222.32915159966797,222.34598599933088,222.66441919934005,0.5,normal,0.3335975995287299,[-0.1111111111111111],[0.1388888888888889],[1],[0],[0],[0.8335975995287299],222.6648238999769,222.679658299312,0.000261000357568264,222.98008739948273,224.0986901000142,[],[],[],[],[],[],,,,,,,,,,Kelsey,Kelsey,2024-11-22_13h31.35.479,Foreperiod_task,2024.2.1post4,59.87059544845408,2024-11-22 13h31.48.355505 -0800,
63,0,63,[-0.1111111111111111],[0.1388888888888889],[1],[0],[0],[2.317898499779403],[],[],[],[],[],[],,,,0,0,0,0,63,0,63,0,224.11441359948367,,,,,,,,,,,,224.09903419949114,224.11441359948367,0.0002810005098581314,224.11441359948367,224.31435009930283,226.09893139917403,226.09893139917403,226.09893139917403,226.1158177992329,226.41772239934653,2,normal,0.3178984997794032,[-0.1111111111111111],[0.1388888888888889],[1],[0],[0],[2.317898499779403],226.41821519937366,226.43286699987948,0.00035820063203573227,226.73299299925566,227.65147439949214,[],[],[],[],[],[],,,,,,,,,,Kelsey,Kelsey,2024-11-22_13h31.35.479,Foreperiod_task,2024.2.1post4,59.87059544845408,2024-11-22 13h31.48.355505 -0800,
64,0,64,[-0.1111111111111111],[0.1388888888888889],[1],[0],[0],[2.3346814000979066],[],[],[],[],[],[],,,,0,0,0,0,64,0,64,0,227.6673073992133,,,,,,,,,,,,227.65187459997833,227.6673073992133,0.0003263000398874283,227.6673073992133,227.8672756999731,229.6520399991423,229.6520399991423,229.6520399991423,229.66881649941206,229.9874175991863,2,normal,0.3346814000979066,[-0.1111111111111111],[0.1388888888888889],[1],[0],[0],[2.3346814000979066],229.98784659989178,230.00269809924066,0.00027820002287626266,230.3027243996039,231.40439609996974,[],[],[],[],[],[],,,,,,,,,,Kelsey,Kelsey,2024-11-22_13h31.35.479,Foreperiod_task,2024.2.1post4,59.87059544845408,2024-11-22 13h31.48.355505 -0800,
65,0,65,[-0.1111111111111111],[0.1388888888888889],[1],[0],[0],[0.8504700995981693],[],[],[],[],[],[],,,,0,0,0,0,65,0,65,0,231.42028069961816,,,,,,,,,,,,231.4047347996384,231.42028069961816,0.0003427993506193161,231.42028069961816,231.62010109983385,231.90408819913864,231.90408819913864,231.90408819913864,231.92066979967058,232.2561160000041,0.5,normal,0.3504700995981693,[-0.1111111111111111],[0.1388888888888889],[1],[0],[0],[0.8504700995981693],232.2565839998424,232.2710711993277,0.0003220001235604286,232.57106059975922,233.70619069971144,[],[],[],[],[],[],,,,,,,,,,Kelsey,Kelsey,2024-11-22_13h31.35.479,Foreperiod_task,2024.2.1post4,59.87059544845408,2024-11-22 13h31.48.355505 -0800,
66,0,66,[-0.1111111111111111],[0.1388888888888889],[1],[0],[0],[0.8335643000900745],[],[],[],[],[],[],,,,0,0,0,0,66,0,66,0,233.722159399651,,,,,,,,,,,,233.70652759913355,233.722159399651,0.00027109961956739426,233.722159399651,233.92247669957578,234.2056171996519,234.2056171996519,234.2056171996519,234.22256919927895,234.54086489975452,0.5,normal,0.33356430009007454,[-0.1111111111111111],[0.1388888888888889],[1],[0],[0],[0.8335643000900745],234.5411810996011,234.55615999922156,0.00019829999655485153,234.85637289937586,236.19175529945642,[],[],[],[],[],[],,,,,,,,,,Kelsey,Kelsey,2024-11-22_13h31.35.479,Foreperiod_task,2024.2.1post4,59.87059544845408,2024-11-22 13h31.48.355505 -0800,
67,0,67,[-0.1111111111111111],[0.1388888888888889],[1],[0],[0],[0.8656385997310281],[],[],[],[],[],[],,,,0,0,0,0,67,0,67,0,236.20798949990422,,,,,,,,,,,,236.19207899924368,236.20798949990422,0.0002532992511987686,236.20798949990422,236.4077443992719,236.69140509981662,236.69140509981662,236.69140509981662,236.7079802993685,237.05827339924872,0.5,normal,0.3656385997310281,[-0.1111111111111111],[0.1388888888888889],[1],[0],[0],[0.8656385997310281],237.05844309926033,237.0745509993285,0.00012109987437725067,237.37536459974945,238.25982019957155,[],[],[],[],[],[],,,,,,,,,,Kelsey,Kelsey,2024-11-22_13h31.35.479,Foreperiod_task,2024.2.1post4,59.87059544845408,2024-11-22 13h31.48.355505 -0800,
68,0,68,[-0.1111111111111111],[0.1388888888888889],[1],[0],[0],[2.318521600216627],[],[],[],[],[],[],,,,0,0,0,0,68,0,68,0,238.2760052997619,,,,,,,,,,,,238.26016709953547,238.2760052997619,0.00026539992541074753,238.2760052997619,238.47611269913614,240.26124349981546,240.26124349981546,240.26124349981546,240.27789549995214,240.57960199937224,2,normal,0.3185216002166271,[-0.1111111111111111],[0.1388888888888889],[1],[0],[0],[2.318521600216627],240.5799912000075,240.59486419986933,0.00025589950382709503,240.8948877993971,241.81301369983703,[],[],[],[],[],[],,,,,,,,,,Kelsey,Kelsey,2024-11-22_13h31.35.479,Foreperiod_task,2024.2.1post4,59.87059544845408,2024-11-22 13h31.48.355505 -0800,
69,0,69,[-0.1111111111111111],[0.1388888888888889],[1],[0],[0],[2.2844110000878572],[],[],[],[],[],[],,,,0,0,0,0,69,0,69,0,241.82895189989358,,,,,,,,,,,,241.8133386997506,241.82895189989358,0.0002618003636598587,241.82895189989358,242.02924359962344,243.81394489947706,243.81394489947706,243.81394489947706,243.83066619932652,244.098541399464,2,normal,0.28441100008785725,[-0.1111111111111111],[0.1388888888888889],[1],[0],[0],[2.2844110000878572],244.09891029912978,244.114432499744,0.00023860018700361252,244.41442279983312,245.59998659975827,[],[],[],[],[],[],,,,,,,,,,Kelsey,Kelsey,2024-11-22_13h31.35.479,Foreperiod_task,2024.2.1post4,59.87059544845408,2024-11-22 13h31.48.355505 -0800,
70,0,70,[-0.1111111111111111],[0.1388888888888889],[1],[0],[0],[1.6171639002859592],[],[],[],[],[],[],,,,0,0,0,0,70,0,70,0,245.61559059936553,,,,,,,,,,,,245.60042429994792,245.61559059936553,0.00035719946026802063,245.61559059936553,245.81555869989097,246.88308529928327,246.88308529928327,246.88308529928327,246.89973149914294,247.21844560001045,1.2823732893041293,surprise,0.33479061098182994,[-0.1111111111111111],[0.1388888888888889],[1],[0],[0],[1.6171639002859592],247.21887849923223,247.23342219926417,0.00027959980070590973,247.53364249970764,248.58532759919763,[],[],[],[],[],[],,,,,,,,,,Kelsey,Kelsey,2024-11-22_13h31.35.479,Foreperiod_task,2024.2.1post4,59.87059544845408,2024-11-22 13h31.48.355505 -0800,
71,0,71,[-0.1111111111111111],[0.1388888888888889],[1],[0],[0],[2.3675522999837995],[],[],[],[],[],[],,,,0,0,0,0,71,0,71,0,248.60122759919614,,,,,,,,,,,,248.5856517991051,248.60122759919614,0.0002586999908089638,248.60122759919614,248.8013462992385,250.58620129991323,250.58620129991323,250.58620129991323,250.602857099846,250.9539361000061,2,normal,0.36755229998379946,[-0.1111111111111111],[0.1388888888888889],[1],[0],[0],[2.3675522999837995],250.95445409975946,250.96988189965487,0.000376800075173378,251.26970990002155,252.43843409977853,[],[],[],[],[],[],,,,,,,,,,Kelsey,Kelsey,2024-11-22_13h31.35.479,Foreperiod_task,2024.2.1post4,59.87059544845408,2024-11-22 13h31.48.355505 -0800,
72,0,72,[-0.1111111111111111],[0.1388888888888889],[1],[0],[0],[2.385002799332142],[],[],[],[],[],[],,,,0,0,0,0,72,0,72,0,252.45438329968601,,,,,,,,,,,,252.4387782998383,252.45438329968601,0.0002727992832660675,252.45438329968601,252.65453539974988,254.439436099492,254.439436099492,254.439436099492,254.45610179938376,254.82459099963307,2,normal,0.3850027993321419,[-0.1111111111111111],[0.1388888888888889],[1],[0],[0],[2.385002799332142],254.82496569957584,254.8397346995771,0.00022940058261156082,255.13996929954737,256.408603399992,[],[],[],[],[],[],,,,,,,,,,Kelsey,Kelsey,2024-11-22_13h31.35.479,Foreperiod_task,2024.2.1post4,59.87059544845408,2024-11-22 13h31.48.355505 -0800,
73,0,73,[-0.1111111111111111],[0.1388888888888889],[1],[0],[0],[2.3015792993828654],[],[],[],[],[],[],,,,0,0,0,0,73,0,73,0,256.4244406996295,,,,,,,,,,,,256.40894299931824,256.4244406996295,0.00025819987058639526,256.4244406996295,256.6245452994481,258.4096753997728,258.4096753997728,258.4096753997728,258.42625209968537,258.7115249997005,2,normal,0.30157929938286543,[-0.1111111111111111],[0.1388888888888889],[1],[0],[0],[2.3015792993828654],258.71202039998025,258.72648009937257,0.00035769958049058914,259.02660469990224,259.9783784998581,[],[],[],[],[],[],,,,,,,,,,Kelsey,Kelsey,2024-11-22_13h31.35.479,Foreperiod_task,2024.2.1post4,59.87059544845408,2024-11-22 13h31.48.355505 -0800,
74,0,74,[-0.1111111111111111],[0.1388888888888889],[1],[0],[0],[2.317892000079155],[],[],[],[],[],[],,,,0,0,0,0,74,0,74,0,259.9941636994481,,,,,,,,,,,,259.978750099428,259.9941636994481,0.0002995003014802933,259.9941636994481,260.1941708996892,261.97895129956305,261.97895129956305,261.97895129956305,261.9956933995709,262.29755429923534,2,normal,0.31789200007915497,[-0.1111111111111111],[0.1388888888888889],[1],[0],[0],[2.317892000079155],262.2979895994067,262.3127025999129,0.00028929952532052994,262.61290799919516,263.61446199938655,[],[],[],[],[],[],,,,,,,,,,Kelsey,Kelsey,2024-11-22_13h31.35.479,Foreperiod_task,2024.2.1post4,59.87059544845408,2024-11-22 13h31.48.355505 -0800,
75,0,75,[-0.1111111111111111],[0.1388888888888889],[1],[0],[0],[0.883279100060463],[],[],[],[],[],[],,,,0,0,0,0,75,0,75,0,263.6304586995393,,,,,,,,,,,,263.6148022999987,263.6304586995393,0.00027189962565898895,263.6304586995393,263.8304345998913,264.1308785993606,264.1308785993606,264.1308785993606,264.1473363991827,264.49873739946634,0.5,normal,0.38327910006046295,[-0.1111111111111111],[0.1388888888888889],[1],[0],[0],[0.883279100060463],264.4991065999493,264.5143121993169,0.0002501998096704483,264.81484279967844,265.782871899195,[],[],[],[],[],[],,,,,,,,,,Kelsey,Kelsey,2024-11-22_13h31.35.479,Foreperiod_task,2024.2.1post4,59.87059544845408,2024-11-22 13h31.48.355505 -0800,
76,0,76,[-0.1111111111111111],[0.1388888888888889],[1],[0],[0],[0.8670071996748447],[],[],[],[],[],[],,,,0,0,0,0,76,0,76,0,265.79881969932467,,,,,,,,,,,,265.78319079987705,265.79881969932467,0.0002541998401284218,265.79881969932467,265.9990467997268,266.28270779922605,266.28270779922605,266.28270779922605,266.29936169926077,266.650966999121,0.5,normal,0.36700719967484474,[-0.1111111111111111],[0.1388888888888889],[1],[0],[0],[0.8670071996748447],266.65138369984925,266.66630089934915,0.00028239935636520386,266.9661208000034,267.86799269914627,[],[],[],[],[],[],,,,,,,,,,Kelsey,Kelsey,2024-11-22_13h31.35.479,Foreperiod_task,2024.2.1post4,59.87059544845408,2024-11-22 13h31.48.355505 -0800,
77,0,77,[-0.1111111111111111],[0.1388888888888889],[1],[0],[0],[2.3183956993743777],[],[],[],[],[],[],,,,0,0,0,0,77,0,77,0,267.8839746993035,,,,,,,,,,,,267.8683529999107,267.8839746993035,0.0002887006849050522,267.8839746993035,268.084192099981,269.8689354993403,269.8689354993403,269.8689354993403,269.8855160996318,270.1875990992412,2,normal,0.3183956993743777,[-0.1111111111111111],[0.1388888888888889],[1],[0],[0],[2.3183956993743777],270.1880443999544,270.2025491995737,0.00030579976737499237,270.50266409944743,271.8379022991285,[],[],[],[],[],[],,,,,,,,,,Kelsey,Kelsey,2024-11-22_13h31.35.479,Foreperiod_task,2024.2.1post4,59.87059544845408,2024-11-22 13h31.48.355505 -0800,
78,0,78,[-0.1111111111111111],[0.1388888888888889],[1],[0],[0],[0.8006068002432585],[],[],[],[],[],[],,,,0,0,0,0,78,0,78,0,271.85391159914434,,,,,,,,,,,,271.83823229931295,271.85391159914434,0.0002699000760912895,271.85391159914434,272.05396909918636,272.3376343995333,272.3376343995333,272.3376343995333,272.35425849910825,272.6404136996716,0.5,normal,0.3006068002432585,[-0.1111111111111111],[0.1388888888888889],[1],[0],[0],[0.8006068002432585],272.6409617997706,272.65460219979286,0.0004067998379468918,272.95477119926363,274.0718812998384,[],[],[],[],[],[],,,,,,,,,,Kelsey,Kelsey,2024-11-22_13h31.35.479,Foreperiod_task,2024.2.1post4,59.87059544845408,2024-11-22 13h31.48.355505 -0800,
79,0,79,[-0.1111111111111111],[0.1388888888888889],[1],[0],[0],[0.8180098002776504],[],[],[],[],[],[],,,,0,0,0,0,79,0,79,0,274.08842329960316,,,,,,,,,,,,274.07202069927007,274.08842329960316,0.00011379923671483994,274.08842329960316,274.28846469987184,274.5721330996603,274.5721330996603,274.5721330996603,274.5889027994126,274.8906008992344,0.5,normal,0.31800980027765036,[-0.1111111111111111],[0.1388888888888889],[1],[0],[0],[0.8180098002776504],274.8909927997738,274.9062965000048,0.0002658003941178322,275.20633109938353,276.40850849915296,[],[],[],[],[],[],,,,,,,,,,Kelsey,Kelsey,2024-11-22_13h31.35.479,Foreperiod_task,2024.2.1post4,59.87059544845408,2024-11-22 13h31.48.355505 -0800,
80,0,80,[-0.1111111111111111],[0.1388888888888889],[1],[0],[0],[2.284753399901092],[],[],[],[],[],[],,,,0,0,0,0,80,0,80,0,276.424280599691,,,,,,,,,,,,276.4088289998472,276.424280599691,0.00025480054318904877,276.424280599691,276.62453979998827,278.4097867999226,278.4097867999226,278.4097867999226,278.426194999367,278.6943989992142,2,normal,0.28475339990109205,[-0.1111111111111111],[0.1388888888888889],[1],[0],[0],[2.284753399901092],278.69491409976035,278.70873979944736,0.00036999955773353577,279.00933889951557,280.1275702994317,[],[],[],[],[],[],,,,,,,,,,Kelsey,Kelsey,2024-11-22_13h31.35.479,Foreperiod_task,2024.2.1post4,59.87059544845408,2024-11-22 13h31.48.355505 -0800,
81,0,81,[-0.1111111111111111],[0.1388888888888889],[1],[0],[0],[2.285598799586296],[],[],[],[],[],[],,,,0,0,0,0,81,0,81,0,280.144127599895,,,,,,,,,,,,280.12775949947536,280.144127599895,0.00015070009976625443,280.144127599895,280.34428549930453,282.1291649993509,282.1291649993509,282.1291649993509,282.14607169944793,282.41402639914304,2,normal,0.2855987995862961,[-0.1111111111111111],[0.1388888888888889],[1],[0],[0],[2.285598799586296],282.41451369971037,282.4293305994943,0.0003678007051348686,282.72974939923733,283.8979159994051,[],[],[],[],[],[],,,,,,,,,,Kelsey,Kelsey,2024-11-22_13h31.35.479,Foreperiod_task,2024.2.1post4,59.87059544845408,2024-11-22 13h31.48.355505 -0800,
82,0,82,[-0.1111111111111111],[0.1388888888888889],[1],[0],[0],[2.285111900418997],[],[],[],[],[],[],,,,0,0,0,0,82,0,82,0,283.91393779963255,,,,,,,,,,,,283.89827929995954,283.91393779963255,0.0002934001386165619,283.91393779963255,284.11405989993364,285.89913229923695,285.89913229923695,285.89913229923695,285.91583279985934,286.1842141998932,2,normal,0.2851119004189968,[-0.1111111111111111],[0.1388888888888889],[1],[0],[0],[2.285111900418997],286.1847613994032,286.1992550995201,0.000396200455725193,286.4994016997516,287.3843773994595,[],[],[],[],[],[],,,,,,,,,,Kelsey,Kelsey,2024-11-22_13h31.35.479,Foreperiod_task,2024.2.1post4,59.87059544845408,2024-11-22 13h31.48.355505 -0800,
83,0,83,[-0.1111111111111111],[0.1388888888888889],[1],[0],[0],[0.8329918999224901],[],[],[],[],[],[],,,,0,0,0,0,83,0,83,0,287.4002460995689,,,,,,,,,,,,287.38471399992704,287.4002460995689,0.0002607004716992378,287.4002460995689,287.60029869992286,287.88376429956406,287.88376429956406,287.88376429956406,287.90092489961535,288.2185281999409,0.5,normal,0.3329918999224901,[-0.1111111111111111],[0.1388888888888889],[1],[0],[0],[0.8329918999224901],288.2189279999584,288.23414169996977,0.00027830060571432114,288.5343722999096,289.71975529938936,[],[],[],[],[],[],,,,,,,,,,Kelsey,Kelsey,2024-11-22_13h31.35.479,Foreperiod_task,2024.2.1post4,59.87059544845408,2024-11-22 13h31.48.355505 -0800,
84,0,84,[-0.1111111111111111],[0.1388888888888889],[1],[0],[0],[0.8497500997036695],[],[],[],[],[],[],,,,0,0,0,0,84,0,84,0,289.73550059925765,,,,,,,,,,,,289.72011329978704,289.73550059925765,0.0002789003774523735,289.73550059925765,289.93581739999354,290.2192615997046,290.2192615997046,290.2192615997046,290.2359408996999,290.57068769913167,0.5,normal,0.34975009970366955,[-0.1111111111111111],[0.1388888888888889],[1],[0],[0],[0.8497500997036695],290.57112719956785,290.5861331997439,0.00030190031975507736,290.88644149992615,292.0716021992266,[],[],[],[],[],[],,,,,,,,,,Kelsey,Kelsey,2024-11-22_13h31.35.479,Foreperiod_task,2024.2.1post4,59.87059544845408,2024-11-22 13h31.48.355505 -0800,
85,0,85,[-0.1111111111111111],[0.1388888888888889],[1],[0],[0],[2.28476760070771],[],[],[],[],[],[],,,,0,0,0,0,85,0,85,0,292.0874755997211,,,,,,,,,,,,292.07202219963074,292.0874755997211,0.00034529995173215866,292.0874755997211,292.28772299923,294.0723471995443,294.0723471995443,294.0723471995443,294.08909559994936,294.3576166993007,2,normal,0.2847676007077098,[-0.1111111111111111],[0.1388888888888889],[1],[0],[0],[2.28476760070771],294.35820769984275,294.3726306995377,0.00045979954302310944,294.6729772994295,295.8245130991563,[],[],[],[],[],[],,,,,,,,,,Kelsey,Kelsey,2024-11-22_13h31.35.479,Foreperiod_task,2024.2.1post4,59.87059544845408,2024-11-22 13h31.48.355505 -0800,
86,0,86,[-0.1111111111111111],[0.1388888888888889],[1],[0],[0],[0.816618699580431],[],[],[],[],[],[],,,,0,0,0,0,86,0,86,0,295.84050509985536,,,,,,,,,,,,295.82483239937574,295.84050509985536,0.00025190040469169617,295.84050509985536,296.0407276991755,296.32427500002086,296.32427500002086,296.32427500002086,296.3409173991531,296.64219979941845,0.5,normal,0.316618699580431,[-0.1111111111111111],[0.1388888888888889],[1],[0],[0],[0.816618699580431],296.64275509957224,296.6579720992595,0.0003995997831225395,296.95852709934115,298.20949909929186,[],[],[],[],[],[],,,,,,,,,,Kelsey,Kelsey,2024-11-22_13h31.35.479,Foreperiod_task,2024.2.1post4,59.87059544845408,2024-11-22 13h31.48.355505 -0800,
87,0,87,[-0.1111111111111111],[0.1388888888888889],[1],[0],[0],[2.3355700001120567],[],[],[],[],[],[],,,,0,0,0,0,87,0,87,0,298.22556989919394,,,,,,,,,,,,298.20967079978436,298.22556989919394,0.00013559963554143906,298.22556989919394,298.42617879994214,300.210803899914,300.210803899914,300.210803899914,300.22781219985336,300.545910699293,2,normal,0.33557000011205673,[-0.1111111111111111],[0.1388888888888889],[1],[0],[0],[2.3355700001120567],300.5464386995882,300.5611936999485,0.0003871992230415344,300.861313899979,301.97986439988017,[],[],[],[],[],[],,,,,,,,,,Kelsey,Kelsey,2024-11-22_13h31.35.479,Foreperiod_task,2024.2.1post4,59.87059544845408,2024-11-22 13h31.48.355505 -0800,
88,0,88,[-0.1111111111111111],[0.1388888888888889],[1],[0],[0],[0.8668403001502156],[],[],[],[],[],[],,,,0,0,0,0,88,0,88,0,301.9958212999627,,,,,,,,,,,,301.98026379942894,301.9958212999627,0.00033009983599185944,301.9958212999627,302.1954321991652,302.47957559954375,302.47957559954375,302.47957559954375,302.49618349969387,302.84790929965675,0.5,normal,0.3668403001502156,[-0.1111111111111111],[0.1388888888888889],[1],[0],[0],[0.8668403001502156],302.8484250996262,302.8630764000118,0.0003738999366760254,303.16331229917705,304.5150876995176,[],[],[],[],[],[],,,,,,,,,,Kelsey,Kelsey,2024-11-22_13h31.35.479,Foreperiod_task,2024.2.1post4,59.87059544845408,2024-11-22 13h31.48.355505 -0800,
89,0,89,[-0.1111111111111111],[0.1388888888888889],[1],[0],[0],[0.7836557002738118],[],[],[],[],[],[],,,,0,0,0,0,89,0,89,0,304.5310423998162,,,,,,,,,,,,304.5154218999669,304.5310423998162,0.00027410034090280533,304.5310423998162,304.7314753998071,305.0148397991434,305.0148397991434,305.0148397991434,305.031507499516,305.3002161998302,0.5,normal,0.2836557002738118,[-0.1111111111111111],[0.1388888888888889],[1],[0],[0],[0.7836557002738118],305.3005756000057,305.31510899960995,0.00025159958750009537,305.6152786994353,306.8336220998317,[],[],[],[],[],[],,,,,,,,,,Kelsey,Kelsey,2024-11-22_13h31.35.479,Foreperiod_task,2024.2.1post4,59.87059544845408,2024-11-22 13h31.48.355505 -0800,
90,0,90,[-0.1111111111111111],[0.1388888888888889],[1],[0],[0],[0.8006336009129882],[],[],[],[],[],[],,,,0,0,0,0,90,0,90,0,306.8496449999511,,,,,,,,,,,,306.83396199997514,306.8496449999511,0.000269399955868721,306.8496449999511,307.0498402994126,307.33349989913404,307.33349989913404,307.33349989913404,307.35025309957564,307.635253299959,0.5,normal,0.3006336009129882,[-0.1111111111111111],[0.1388888888888889],[1],[0],[0],[0.8006336009129882],307.6356828995049,307.650734199211,0.00022399984300136566,307.95059929974377,308.85182189941406,[],[],[],[],[],[],,,,,,,,,,Kelsey,Kelsey,2024-11-22_13h31.35.479,Foreperiod_task,2024.2.1post4,59.87059544845408,2024-11-22 13h31.48.355505 -0800,
91,0,91,[-0.1111111111111111],[0.1388888888888889],[1],[0],[0],[0.8006076002493501],[],[],[],[],[],[],,,,0,0,0,0,91,0,91,0,308.8674967996776,,,,,,,,,,,,308.85208550002426,308.8674967996776,0.00021020043641328812,308.8674967996776,309.0681667998433,309.35189959965646,309.35189959965646,309.35189959965646,309.3685434991494,309.65333639923483,0.5,normal,0.30060760024935007,[-0.1111111111111111],[0.1388888888888889],[1],[0],[0],[0.8006076002493501],309.6536570992321,309.66866149939597,0.00021110009402036667,309.96885049995035,311.03734529949725,[],[],[],[],[],[],,,,,,,,,,Kelsey,Kelsey,2024-11-22_13h31.35.479,Foreperiod_task,2024.2.1post4,59.87059544845408,2024-11-22 13h31.48.355505 -0800,
92,0,92,[-0.1111111111111111],[0.1388888888888889],[1],[0],[0],[0.7834949996322393],[],[],[],[],[],[],,,,0,0,0,0,92,0,92,0,311.05334299989045,,,,,,,,,,,,311.0377048999071,311.05334299989045,0.00028229970484972,311.05334299989045,311.2526835994795,311.5368242999539,311.5368242999539,311.5368242999539,311.5532354991883,311.82201939914376,0.5,normal,0.28349499963223934,[-0.1111111111111111],[0.1388888888888889],[1],[0],[0],[0.7834949996322393],311.8224690994248,311.8372726999223,0.0003037005662918091,312.13740889914334,313.2057040994987,[],[],[],[],[],[],,,,,,,,,,Kelsey,Kelsey,2024-11-22_13h31.35.479,Foreperiod_task,2024.2.1post4,59.87059544845408,2024-11-22 13h31.48.355505 -0800,
93,0,93,[-0.1111111111111111],[0.1388888888888889],[1],[0],[0],[0.8007917003706098],[],[],[],[],[],[],,,,0,0,0,0,93,0,93,0,313.22165319975466,,,,,,,,,,,,313.2061666995287,313.22165319975466,0.0003900006413459778,313.22165319975466,313.4215243998915,313.7053861999884,313.7053861999884,313.7053861999884,313.72207949962467,314.00790679920465,0.5,normal,0.30079170037060976,[-0.1111111111111111],[0.1388888888888889],[1],[0],[0],[0.8007917003706098],314.00843699928373,314.0226171994582,0.0003612004220485687,314.3225782997906,315.5573338996619,[],[],[],[],[],[],,,,,,,,,,Kelsey,Kelsey,2024-11-22_13h31.35.479,Foreperiod_task,2024.2.1post4,59.87059544845408,2024-11-22 13h31.48.355505 -0800,
94,0,94,[-0.1111111111111111],[0.1388888888888889],[1],[0],[0],[0.7682935995981097],[],[],[],[],[],[],,,,0,0,0,0,94,0,94,0,315.573467399925,,,,,,,,,,,,315.55763329938054,315.573467399925,0.00023669935762882233,315.573467399925,315.7737643998116,316.05734919942915,316.05734919942915,316.05734919942915,316.07408439926803,316.32667009998113,0.5,normal,0.2682935995981097,[-0.1111111111111111],[0.1388888888888889],[1],[0],[0],[0.7682935995981097],316.32713019941,316.3410622999072,0.0003249002620577812,316.6411426998675,317.6432374995202,[],[],[],[],[],[],,,,,,,,,,Kelsey,Kelsey,2024-11-22_13h31.35.479,Foreperiod_task,2024.2.1post4,59.87059544845408,2024-11-22 13h31.48.355505 -0800,
95,0,95,[-0.1111111111111111],[0.1388888888888889],[1],[0],[0],[0.7668281001970172],[],[],[],[],[],[],,,,0,0,0,0,95,0,95,0,317.65929239988327,,,,,,,,,,,,317.643606999889,317.65929239988327,0.00028610043227672577,317.65929239988327,317.8588070999831,318.14257209934294,318.14257209934294,318.14257209934294,318.15915869921446,318.41140289977193,0.5,normal,0.2668281001970172,[-0.1111111111111111],[0.1388888888888889],[1],[0],[0],[0.7668281001970172],318.4120450997725,318.4262000992894,0.0004783999174833298,318.7261453997344,319.9779965998605,[],[],[],[],[],[],,,,,,,,,,Kelsey,Kelsey,2024-11-22_13h31.35.479,Foreperiod_task,2024.2.1post4,59.87059544845408,2024-11-22 13h31.48.355505 -0800,
96,0,96,[-0.1111111111111111],[0.1388888888888889],[1],[0],[0],[2.318316400051117],[],[],[],[],[],[],,,,0,0,0,0,96,0,96,0,319.9939316995442,,,,,,,,,,,,319.97833289951086,319.9939316995442,0.00026770029217004776,319.9939316995442,320.1941592991352,321.97899689991027,321.97899689991027,321.97899689991027,321.9956165999174,322.29752049967647,2,normal,0.31831640005111694,[-0.1111111111111111],[0.1388888888888889],[1],[0],[0],[2.318316400051117],322.298028299585,322.3126515997574,0.0003776000812649727,322.6127639999613,323.5810006996617,[],[],[],[],[],[],,,,,,,,,,Kelsey,Kelsey,2024-11-22_13h31.35.479,Foreperiod_task,2024.2.1post4,59.87059544845408,2024-11-22 13h31.48.355505 -0800,
97,0,97,[-0.1111111111111111],[0.1388888888888889],[1],[0],[0],[0.8501509996131063],[],[],[],[],[],[],,,,0,0,0,0,97,0,97,0,323.5968806995079,,,,,,,,,,,,323.5813589999452,323.5968806995079,0.00037979986518621445,323.5968806995079,323.79728179983795,324.0807919995859,324.0807919995859,324.0807919995859,324.0973608996719,324.43228229973465,0.5,normal,0.35015099961310625,[-0.1111111111111111],[0.1388888888888889],[1],[0],[0],[0.8501509996131063],324.4326638998464,324.4478530995548,0.00027510058134794235,324.7476698998362,325.632604399696,[],[],[],[],[],[],,,,,,,,,,Kelsey,Kelsey,2024-11-22_13h31.35.479,Foreperiod_task,2024.2.1post4,59.87059544845408,2024-11-22 13h31.48.355505 -0800,
98,0,98,[-0.1111111111111111],[0.1388888888888889],[1],[0],[0],[0.8004486998543143],[],[],[],[],[],[],,,,0,0,0,0,98,0,98,0,325.64870929997414,,,,,,,,,,,,325.63306689914316,325.64870929997414,0.00029540061950683594,325.64870929997414,325.84883239958435,326.1324109993875,326.1324109993875,326.1324109993875,326.14900479931384,326.4344056993723,0.5,normal,0.3004486998543143,[-0.1111111111111111],[0.1388888888888889],[1],[0],[0],[0.8004486998543143],326.4347620997578,326.44953039940447,0.00022539962083101273,326.74945869948715,327.9013170991093,[],[],[],[],[],[],,,,,,,,,,Kelsey,Kelsey,2024-11-22_13h31.35.479,Foreperiod_task,2024.2.1post4,59.87059544845408,2024-11-22 13h31.48.355505 -0800,
99,0,99,[-0.1111111111111111],[0.1388888888888889],[1],[0],[0],[1.349571599625051],[],[],[],[],[],[],,,,0,0,0,0,99,0,99,0,327.91721639968455,,,,,,,,,,,,327.9016558993608,327.91721639968455,0.00027689989656209946,327.91721639968455,328.11737199965864,329.0014496995136,329.0014496995136,329.0014496995136,329.0181163996458,329.2516919998452,1.0929241178986622,surprise,0.25664748172638885,[-0.1111111111111111],[0.1388888888888889],[1],[0],[0],[1.349571599625051],329.25198169983923,329.26795809995383,0.00022539962083101273,329.5686223991215,330.6202024994418,[],[],[],[],[],[],,,,,,,,,,Kelsey,Kelsey,2024-11-22_13h31.35.479,Foreperiod_task,2024.2.1post4,59.87059544845408,2024-11-22 13h31.48.355505 -0800,
0,0,0,,,,,,,,,,,,,space,15.74734910018742,None,0,0,0,0,,,,,,,,,,,,,,,,,,,,,,,,,,,,,,,,,,,,,,,,,,,,,,,330.6302397996187,330.6537557998672,330.6537557998672,346.474306599237,space,15.74734910018742,None,,,Kelsey,Kelsey,2024-11-22_13h31.35.479,Foreperiod_task,2024.2.1post4,59.87059544845408,2024-11-22 13h31.48.355505 -0800,
0,0,0,[-0.1111111111111111],[0.1388888888888889],[1],[0],[0],[0.7761070001870394],[],[],[],[],[],[],,,,1,0,1,0,0,0,0,0,346.47824419941753,,,,,,,,,,,,346.4750049998984,346.47824419941753,0.000665600411593914,346.47824419941753,346.68278589937836,346.9831037996337,346.9831037996337,346.9831037996337,346.99981259927154,347.2515574991703,0.5,normal,0.2761070001870394,[-0.1111111111111111],[0.1388888888888889],[1],[0],[0],[0.7761070001870394],347.2518883999437,347.2661933992058,0.0002338998019695282,347.5668880995363,348.75227519962937,[],[],[],[],[],[],,,,,,,,,,Kelsey,Kelsey,2024-11-22_13h31.35.479,Foreperiod_task,2024.2.1post4,59.87059544845408,2024-11-22 13h31.48.355505 -0800,
1,0,1,[-0.125],[0.07777777777777778],[1],[0],[0],[2.301266999915242],[],[],[],[],[],[],,,,1,0,1,0,1,0,1,0,348.768062999472,,,,,,,,,,,,348.7525778999552,348.768062999472,0.0002508005127310753,348.768062999472,348.96800019964576,350.7530751992017,350.7530751992017,350.7530751992017,350.7696407996118,351.0545237995684,2,normal,0.3012669999152422,[-0.125],[0.07777777777777778],[1],[0],[0],[2.301266999915242],351.05487879924476,351.07002479955554,0.0002573002129793167,351.3702542996034,352.3551690997556,[],[],[],[],[],[],,,,,,,,,,Kelsey,Kelsey,2024-11-22_13h31.35.479,Foreperiod_task,2024.2.1post4,59.87059544845408,2024-11-22 13h31.48.355505 -0800,
2,0,2,[-0.125],[0.07777777777777778],[1],[0],[0],[1.4340126002207398],[],[],[],[],[],[],,,,1,0,1,0,2,0,2,0,352.3708320995793,,,,,,,,,,,,352.3555054999888,352.3708320995793,0.0002736002206802368,352.3708320995793,352.5712343994528,353.4381519993767,353.4381519993767,353.4381519993767,353.45516319945455,353.79026279971004,1.0756716027055413,surprise,0.35834099751519854,[-0.125],[0.07777777777777778],[1],[0],[0],[1.4340126002207398],353.7906181998551,353.8056173995137,0.00021979957818984985,354.10598749946803,355.37438389938325,[],[],[],[],[],[],,,,,,,,,,Kelsey,Kelsey,2024-11-22_13h31.35.479,Foreperiod_task,2024.2.1post4,59.87059544845408,2024-11-22 13h31.48.355505 -0800,
3,0,3,[-0.125],[0.07777777777777778],[1],[0],[0],[0.8333566002547741],[],[],[],[],[],[],,,,1,0,1,0,3,0,3,0,355.39020979963243,,,,,,,,,,,,355.37471829913557,355.39020979963243,0.0002699000760912895,355.39020979963243,355.59061959944665,355.87437589932233,355.87437589932233,355.87437589932233,355.8908996991813,356.2087674997747,0.5,normal,0.3333566002547741,[-0.125],[0.07777777777777778],[1],[0],[0],[0.8333566002547741],356.2091314997524,356.2242398997769,0.000246499665081501,356.5245047993958,357.8598973993212,[],[],[],[],[],[],,,,,,,,,,Kelsey,Kelsey,2024-11-22_13h31.35.479,Foreperiod_task,2024.2.1post4,59.87059544845408,2024-11-22 13h31.48.355505 -0800,
4,0,4,[-0.125],[0.07777777777777778],[1],[0],[0],[2.300722800195217],[],[],[],[],[],[],,,,1,0,1,0,4,0,4,0,357.87562949955463,,,,,,,,,,,,357.86024769954383,357.87562949955463,0.0002691997215151787,357.87562949955463,358.0758661990985,359.86085369996727,359.86085369996727,359.86085369996727,359.87761239986867,360.1614780994132,2,normal,0.30072280019521713,[-0.125],[0.07777777777777778],[1],[0],[0],[2.300722800195217],360.1617174996063,360.17717219982296,0.00015410035848617554,360.4778496995568,361.61278339941055,[],[],[],[],[],[],,,,,,,,,,Kelsey,Kelsey,2024-11-22_13h31.35.479,Foreperiod_task,2024.2.1post4,59.87059544845408,2024-11-22 13h31.48.355505 -0800,
5,0,5,[-0.125],[0.07777777777777778],[1],[0],[0],[0.800305699929595],[],[],[],[],[],[],,,,1,0,1,0,5,0,5,0,361.62919109966606,,,,,,,,,,,,361.6131278993562,361.62919109966606,0.00027559977024793625,361.62919109966606,361.8289094995707,362.1125466991216,362.1125466991216,362.1125466991216,362.1291959993541,362.41413839999586,0.5,normal,0.300305699929595,[-0.125],[0.07777777777777778],[1],[0],[0],[0.800305699929595],362.41451859939843,362.42945539951324,0.0002480996772646904,362.72938629984856,364.0480290995911,[],[],[],[],[],[],,,,,,,,,,Kelsey,Kelsey,2024-11-22_13h31.35.479,Foreperiod_task,2024.2.1post4,59.87059544845408,2024-11-22 13h31.48.355505 -0800,
6,0,6,[-0.125],[0.07777777777777778],[1],[0],[0],[0.8002202995121479],[],[],[],[],[],[],,,,1,0,1,0,6,0,6,0,364.06416499987245,,,,,,,,,,,,364.048351299949,364.06416499987245,0.00025849975645542145,364.06416499987245,364.26423259917647,364.54749619960785,364.54749619960785,364.54749619960785,364.56439489964396,364.8493288997561,0.5,normal,0.3002202995121479,[-0.125],[0.07777777777777778],[1],[0],[0],[0.8002202995121479],364.84976499993354,364.86457269918174,0.0003136005252599716,365.16487559955567,366.33327219914645,[],[],[],[],[],[],,,,,,,,,,Kelsey,Kelsey,2024-11-22_13h31.35.479,Foreperiod_task,2024.2.1post4,59.87059544845408,2024-11-22 13h31.48.355505 -0800,
7,0,7,[-0.125],[0.07777777777777778],[1],[0],[0],[1.3511987002566457],[],[],[],[],[],[],,,,1,0,1,0,7,0,7,0,366.3491681991145,,,,,,,,,,,,366.3335727993399,366.3491681991145,0.00024189986288547516,366.3491681991145,366.549353399314,367.35006099939346,367.35006099939346,367.35006099939346,367.3667195998132,367.6855911994353,1.0144590789481835,surprise,0.33673962130846213,[-0.125],[0.07777777777777778],[1],[0],[0],[1.3511987002566457],367.6862765997648,367.70041569974273,0.000552699901163578,368.00057939998806,368.952387499623,[],[],[],[],[],[],,,,,,,,,,Kelsey,Kelsey,2024-11-22_13h31.35.479,Foreperiod_task,2024.2.1post4,59.87059544845408,2024-11-22 13h31.48.355505 -0800,
8,0,8,[-0.125],[0.07777777777777778],[1],[0],[0],[2.2847910998389125],[],[],[],[],[],[],,,,1,0,1,0,8,0,8,0,368.9680872997269,,,,,,,,,,,,368.9527836991474,368.9680872997269,0.0003072991967201233,368.9680872997269,369.1682747993618,370.9530597999692,370.9530597999692,370.9530597999692,370.96988679934293,371.23857029993087,2,normal,0.2847910998389125,[-0.125],[0.07777777777777778],[1],[0],[0],[2.2847910998389125],371.23917489964515,371.2532987995073,0.00046500004827976227,371.55341819953173,372.70527899917215,[],[],[],[],[],[],,,,,,,,,,Kelsey,Kelsey,2024-11-22_13h31.35.479,Foreperiod_task,2024.2.1post4,59.87059544845408,2024-11-22 13h31.48.355505 -0800,
9,0,9,[-0.125],[0.07777777777777778],[1],[0],[0],[1.684174600057304],[],[],[],[],[],[],,,,1,0,1,0,9,0,9,0,372.72098119929433,,,,,,,,,,,,372.7056070994586,372.72098119929433,0.00026299990713596344,372.72098119929433,372.9215986998752,374.08975329995155,374.08975329995155,374.08975329995155,374.10593289975077,374.3904640991241,1.3800567007765796,surprise,0.3041178992807243,[-0.125],[0.07777777777777778],[1],[0],[0],[1.684174600057304],374.3908352991566,374.4059959994629,0.0002939002588391304,374.7065886994824,375.6910427995026,[],[],[],[],[],[],,,,,,,,,,Kelsey,Kelsey,2024-11-22_13h31.35.479,Foreperiod_task,2024.2.1post4,59.87059544845408,2024-11-22 13h31.48.355505 -0800,
10,0,10,[-0.125],[0.07777777777777778],[1],[0],[0],[0.8338330006226897],[],[],[],[],[],[],,,,1,0,1,0,10,0,10,0,375.70684599969536,,,,,,,,,,,,375.691383799538,375.70684599969536,0.00026900041848421097,375.70684599969536,375.90731819998473,376.1907213991508,376.1907213991508,376.1907213991508,376.20741629973054,376.5258912993595,0.5,normal,0.3338330006226897,[-0.125],[0.07777777777777778],[1],[0],[0],[0.8338330006226897],376.52624129969627,376.54103979934007,0.00022190064191818237,376.8414992997423,378.02636579982936,[],[],[],[],[],[],,,,,,,,,,Kelsey,Kelsey,2024-11-22_13h31.35.479,Foreperiod_task,2024.2.1post4,59.87059544845408,2024-11-22 13h31.48.355505 -0800,
11,0,11,[-0.125],[0.07777777777777778],[1],[0],[0],[2.301192100159824],[],[],[],[],[],[],,,,1,0,1,0,11,0,11,0,378.04221689980477,,,,,,,,,,,,378.0267395991832,378.04221689980477,0.00029429979622364044,378.04221689980477,378.24239839985967,380.0272911991924,380.0272911991924,380.0272911991924,380.0438855998218,380.3285511992872,2,normal,0.3011921001598239,[-0.125],[0.07777777777777778],[1],[0],[0],[2.301192100159824],380.32887159939855,380.34416349977255,0.00020879972726106644,380.64432769920677,381.9128256998956,[],[],[],[],[],[],,,,,,,,,,Kelsey,Kelsey,2024-11-22_13h31.35.479,Foreperiod_task,2024.2.1post4,59.87059544845408,2024-11-22 13h31.48.355505 -0800,
12,0,12,[-0.125],[0.07777777777777778],[1],[0],[0],[0.833767500706017],[],[],[],[],[],[],,,,1,0,1,0,12,0,12,0,381.9288299996406,,,,,,,,,,,,381.9131251992658,381.9288299996406,0.0002383999526500702,381.9288299996406,382.12906909920275,382.41283299960196,382.41283299960196,382.41283299960196,382.42927229963243,382.7476719999686,0.5,normal,0.333767500706017,[-0.125],[0.07777777777777778],[1],[0],[0],[0.833767500706017],382.7481042994186,382.7629147991538,0.00029239989817142487,383.06276309955865,384.21487079933286,[],[],[],[],[],[],,,,,,,,,,Kelsey,Kelsey,2024-11-22_13h31.35.479,Foreperiod_task,2024.2.1post4,59.87059544845408,2024-11-22 13h31.48.355505 -0800,
13,0,13,[-0.125],[0.07777777777777778],[1],[0],[0],[0.8334928005933762],[],[],[],[],[],[],,,,1,0,1,0,13,0,13,0,384.23075809981674,,,,,,,,,,,,384.2152486993,384.23075809981674,0.00030060019344091415,384.23075809981674,384.43083109986037,384.714394999668,384.714394999668,384.714394999668,384.73111959919333,385.0495272995904,0.5,normal,0.33349280059337616,[-0.125],[0.07777777777777778],[1],[0],[0],[0.8334928005933762],385.0499663995579,385.0650827996433,0.00029980018734931946,385.3644868992269,386.7340842997655,[],[],[],[],[],[],,,,,,,,,,Kelsey,Kelsey,2024-11-22_13h31.35.479,Foreperiod_task,2024.2.1post4,59.87059544845408,2024-11-22 13h31.48.355505 -0800,
14,0,14,[-0.125],[0.07777777777777778],[1],[0],[0],[0.7998048001900315],[],[],[],[],[],[],,,,1,0,1,0,14,0,14,0,386.7495632991195,,,,,,,,,,,,386.7344072991982,386.7495632991195,0.00026059988886117935,386.7495632991195,386.9495960995555,387.24990329984576,387.24990329984576,387.24990329984576,387.26658089924604,387.53528399951756,0.5,normal,0.29980480019003153,[-0.125],[0.07777777777777778],[1],[0],[0],[0.7998048001900315],387.5357361994684,387.550236299634,0.00031429994851350784,387.85037759970874,389.0525517994538,[],[],[],[],[],[],,,,,,,,,,Kelsey,Kelsey,2024-11-22_13h31.35.479,Foreperiod_task,2024.2.1post4,59.87059544845408,2024-11-22 13h31.48.355505 -0800,
15,0,15,[-0.125],[0.07777777777777778],[1],[0],[0],[0.7997896000742912],[],[],[],[],[],[],,,,1,0,1,0,15,0,15,0,389.06822309922427,,,,,,,,,,,,389.05287129990757,389.06822309922427,0.0002557002007961273,389.06822309922427,389.2683345992118,389.55184989981353,389.55184989981353,389.55184989981353,389.5686034997925,389.8533033998683,0.5,normal,0.29978960007429123,[-0.125],[0.07777777777777778],[1],[0],[0],[0.7997896000742912],389.85365960001945,389.8691640999168,0.000249999575316906,390.1692399997264,391.45405839942396,[],[],[],[],[],[],,,,,,,,,,Kelsey,Kelsey,2024-11-22_13h31.35.479,Foreperiod_task,2024.2.1post4,59.87059544845408,2024-11-22 13h31.48.355505 -0800,
16,0,16,[-0.125],[0.07777777777777778],[1],[0],[0],[0.8007947001606226],[],[],[],[],[],[],,,,1,0,1,0,16,0,16,0,391.47007779963315,,,,,,,,,,,,391.45439809933305,391.47007779963315,0.00027319975197315216,391.47007779963315,391.67018169909716,391.9541350994259,391.9541350994259,391.9541350994259,391.97040589991957,392.2558651994914,0.5,normal,0.3007947001606226,[-0.125],[0.07777777777777778],[1],[0],[0],[0.8007947001606226],392.25623859930784,392.2708604997024,0.00026430003345012665,392.5708920992911,393.85632469970733,[],[],[],[],[],[],,,,,,,,,,Kelsey,Kelsey,2024-11-22_13h31.35.479,Foreperiod_task,2024.2.1post4,59.87059544845408,2024-11-22 13h31.48.355505 -0800,
17,0,17,[-0.125],[0.07777777777777778],[1],[0],[0],[0.8335154000669718],[],[],[],[],[],[],,,,1,0,1,0,17,0,17,0,393.8720710994676,,,,,,,,,,,,393.85666109994054,393.8720710994676,0.00026769936084747314,393.8720710994676,394.07219519931823,394.3557968996465,394.3557968996465,394.3557968996465,394.3725683996454,394.6910068998113,0.5,normal,0.3335154000669718,[-0.125],[0.07777777777777778],[1],[0],[0],[0.8335154000669718],394.6914431992918,394.70612169988453,0.00027820002287626266,395.00633349921554,395.95808749925345,[],[],[],[],[],[],,,,,,,,,,Kelsey,Kelsey,2024-11-22_13h31.35.479,Foreperiod_task,2024.2.1post4,59.87059544845408,2024-11-22 13h31.48.355505 -0800,
18,0,18,[-0.125],[0.07777777777777778],[1],[0],[0],[0.850127600133419],[],[],[],[],[],[],,,,1,0,1,0,18,0,18,0,395.9737908998504,,,,,,,,,,,,395.95842539984733,395.9737908998504,0.0002725999802350998,395.9737908998504,396.17408699914813,396.4576149992645,396.4576149992645,396.4576149992645,396.4742546994239,396.80942719988525,0.5,normal,0.35012760013341904,[-0.125],[0.07777777777777778],[1],[0],[0],[0.850127600133419],396.8099731998518,396.82456369977444,0.0004005003720521927,397.1245979992673,398.2436714991927,[],[],[],[],[],[],,,,,,,,,,Kelsey,Kelsey,2024-11-22_13h31.35.479,Foreperiod_task,2024.2.1post4,59.87059544845408,2024-11-22 13h31.48.355505 -0800,
19,0,19,[-0.125],[0.07777777777777778],[1],[0],[0],[0.8164287004619837],[],[],[],[],[],[],,,,1,0,1,0,19,0,19,0,398.2591718994081,,,,,,,,,,,,398.24403429962695,398.2591718994081,0.00028189923614263535,398.2591718994081,398.45953739993274,398.7430741991848,398.7430741991848,398.7430741991848,398.7596084997058,399.06122819986194,0.5,normal,0.3164287004619837,[-0.125],[0.07777777777777778],[1],[0],[0],[0.8164287004619837],399.0617586998269,399.07619599998,0.00046239979565143585,399.3767855996266,400.3282645000145,[],[],[],[],[],[],,,,,,,,,,Kelsey,Kelsey,2024-11-22_13h31.35.479,Foreperiod_task,2024.2.1post4,59.87059544845408,2024-11-22 13h31.48.355505 -0800,
20,0,20,[-0.125],[0.07777777777777778],[1],[0],[0],[0.9005724005401134],[],[],[],[],[],[],,,,1,0,1,0,20,0,20,0,400.34413979947567,,,,,,,,,,,,400.3285797992721,400.34413979947567,0.0002528000622987747,400.34413979947567,400.5442955996841,400.8278642995283,400.8278642995283,400.8278642995283,400.84453919995576,401.2300637997687,0.5,normal,0.40057240054011345,[-0.125],[0.07777777777777778],[1],[0],[0],[0.9005724005401134],401.23076900001615,401.2449846994132,0.000540400855243206,401.54510299954563,402.5801768992096,[],[],[],[],[],[],,,,,,,,,,Kelsey,Kelsey,2024-11-22_13h31.35.479,Foreperiod_task,2024.2.1post4,59.87059544845408,2024-11-22 13h31.48.355505 -0800,
21,0,21,[-0.125],[0.07777777777777778],[1],[0],[0],[0.8003053003922105],[],[],[],[],[],[],,,,1,0,1,0,21,0,21,0,402.5960934991017,,,,,,,,,,,,402.58048949949443,402.5960934991017,0.0002496996894478798,402.5960934991017,402.7961783995852,403.0795407993719,403.0795407993719,403.0795407993719,403.0965618994087,403.38180859945714,0.5,normal,0.3003053003922105,[-0.125],[0.07777777777777778],[1],[0],[0],[0.8003053003922105],403.38227449916303,403.3966687992215,0.0003089001402258873,403.69680449925363,404.7485215999186,[],[],[],[],[],[],,,,,,,,,,Kelsey,Kelsey,2024-11-22_13h31.35.479,Foreperiod_task,2024.2.1post4,59.87059544845408,2024-11-22 13h31.48.355505 -0800,
22,0,22,[-0.125],[0.07777777777777778],[1],[0],[0],[0.8838623994961381],[],[],[],[],[],[],,,,1,0,1,0,22,0,22,0,404.7644027993083,,,,,,,,,,,,404.7488604998216,404.7644027993083,0.00026639923453330994,404.7644027993083,404.9645728999749,405.24821299966425,405.24821299966425,405.24821299966425,405.2650490999222,405.6336395991966,0.5,normal,0.3838623994961381,[-0.125],[0.07777777777777778],[1],[0],[0],[0.8838623994961381],405.6342814993113,405.6486941995099,0.0005048001185059547,405.94888379983604,406.8502379991114,[],[],[],[],[],[],,,,,,,,,,Kelsey,Kelsey,2024-11-22_13h31.35.479,Foreperiod_task,2024.2.1post4,59.87059544845408,2024-11-22 13h31.48.355505 -0800,
23,0,23,[-0.125],[0.07777777777777778],[1],[0],[0],[0.7835579002276063],[],[],[],[],[],[],,,,1,0,1,0,23,0,23,0,406.8662097994238,,,,,,,,,,,,406.85060969926417,406.8662097994238,0.0003078998997807503,406.8662097994238,407.0670041991398,407.35001860000193,407.35001860000193,407.35001860000193,407.366640699096,407.6348990993574,0.5,normal,0.2835579002276063,[-0.125],[0.07777777777777778],[1],[0],[0],[0.7835579002276063],407.63542819954455,407.6504908995703,0.00039929989725351334,407.95078169927,409.2021560994908,[],[],[],[],[],[],,,,,,,,,,Kelsey,Kelsey,2024-11-22_13h31.35.479,Foreperiod_task,2024.2.1post4,59.87059544845408,2024-11-22 13h31.48.355505 -0800,
24,0,24,[-0.125],[0.07777777777777778],[1],[0],[0],[2.31865799985826],[],[],[],[],[],[],,,,1,0,1,0,24,0,24,0,409.21822509914637,,,,,,,,,,,,409.2024790998548,409.21822509914637,0.0002586003392934799,409.21822509914637,409.4182778997347,411.2031693998724,411.2031693998724,411.2031693998724,411.21978199947625,411.5220631994307,2,normal,0.31865799985826015,[-0.125],[0.07777777777777778],[1],[0],[0],[2.31865799985826],411.5225843992084,411.53680539969355,0.00037499982863664627,411.836776599288,412.98868349939585,[],[],[],[],[],[],,,,,,,,,,Kelsey,Kelsey,2024-11-22_13h31.35.479,Foreperiod_task,2024.2.1post4,59.87059544845408,2024-11-22 13h31.48.355505 -0800,
25,0,25,[-0.125],[0.07777777777777778],[1],[0],[0],[0.8504824005067348],[],[],[],[],[],[],,,,1,0,1,0,25,0,25,0,413.0045782998204,,,,,,,,,,,,412.9890291998163,413.0045782998204,0.00027589965611696243,413.0045782998204,413.2049339991063,413.48840809985995,413.48840809985995,413.48840809985995,413.5049961991608,413.84037250000983,0.5,normal,0.35048240050673485,[-0.125],[0.07777777777777778],[1],[0],[0],[0.8504824005067348],413.84077589958906,413.8553374996409,0.0002688998356461525,414.15583399962634,415.29094849992543,[],[],[],[],[],[],,,,,,,,,,Kelsey,Kelsey,2024-11-22_13h31.35.479,Foreperiod_task,2024.2.1post4,59.87059544845408,2024-11-22 13h31.48.355505 -0800,
26,0,26,[-0.125],[0.07777777777777778],[1],[0],[0],[2.2842774000018835],[],[],[],[],[],[],,,,1,0,1,0,26,0,26,0,415.30656479950994,,,,,,,,,,,,415.2913032993674,415.30656479950994,0.00028089992702007294,415.30656479950994,415.5061973994598,417.29219709988683,417.29219709988683,417.29219709988683,417.3084788993001,417.57628829963505,2,normal,0.2842774000018835,[-0.125],[0.07777777777777778],[1],[0],[0],[2.2842774000018835],417.57682359963655,417.59164589922875,0.00043579936027526855,417.89252489991486,419.06093689985573,[],[],[],[],[],[],,,,,,,,,,Kelsey,Kelsey,2024-11-22_13h31.35.479,Foreperiod_task,2024.2.1post4,59.87059544845408,2024-11-22 13h31.48.355505 -0800,
27,0,27,[-0.125],[0.07777777777777778],[1],[0],[0],[0.8665159000083804],[],[],[],[],[],[],,,,1,0,1,0,27,0,27,0,419.07653139997274,,,,,,,,,,,,419.0613149991259,419.07653139997274,0.0002937000244855881,419.07653139997274,419.27674899995327,419.57633630000055,419.57633630000055,419.57633630000055,419.59306999947876,419.92849719990045,0.5,normal,0.3665159000083804,[-0.125],[0.07777777777777778],[1],[0],[0],[0.8665159000083804],419.92883189953864,419.9438453996554,0.0002154996618628502,420.24384169932455,421.44548119977117,[],[],[],[],[],[],,,,,,,,,,Kelsey,Kelsey,2024-11-22_13h31.35.479,Foreperiod_task,2024.2.1post4,59.87059544845408,2024-11-22 13h31.48.355505 -0800,
28,0,28,[-0.125],[0.07777777777777778],[1],[0],[0],[2.3018199000507593],[],[],[],[],[],[],,,,1,0,1,0,28,0,28,0,421.46162339951843,,,,,,,,,,,,421.4457981996238,421.46162339951843,0.0002505006268620491,421.46162339951843,421.66147980000824,423.4466850999743,423.4466850999743,423.4466850999743,423.4633398996666,423.7484328998253,2,normal,0.3018199000507593,[-0.125],[0.07777777777777778],[1],[0],[0],[2.3018199000507593],423.7488851994276,423.76357769966125,0.0003231000155210495,424.06381809990853,425.26558059919626,[],[],[],[],[],[],,,,,,,,,,Kelsey,Kelsey,2024-11-22_13h31.35.479,Foreperiod_task,2024.2.1post4,59.87059544845408,2024-11-22 13h31.48.355505 -0800,
29,0,29,[-0.125],[0.07777777777777778],[1],[0],[0],[2.3180657997727394],[],[],[],[],[],[],,,,1,0,1,0,29,0,29,0,425.2814701991156,,,,,,,,,,,,425.26591949909925,425.2814701991156,0.00027479976415634155,425.2814701991156,425.4819295993075,427.26652709953487,427.26652709953487,427.26652709953487,427.28316190000623,427.58463599998504,2,normal,0.3180657997727394,[-0.125],[0.07777777777777778],[1],[0],[0],[2.3180657997727394],427.58497409988195,427.6000476991758,0.0002359999343752861,427.9000599998981,429.0353731997311,[],[],[],[],[],[],,,,,,,,,,Kelsey,Kelsey,2024-11-22_13h31.35.479,Foreperiod_task,2024.2.1post4,59.87059544845408,2024-11-22 13h31.48.355505 -0800,
30,0,30,[-0.125],[0.07777777777777778],[1],[0],[0],[2.2850098004564643],[],[],[],[],[],[],,,,1,0,1,0,30,0,30,0,429.05130349937826,,,,,,,,,,,,429.0356974992901,429.05130349937826,0.00025350041687488556,429.05130349937826,429.2514578998089,431.03626629989594,431.03626629989594,431.03626629989594,431.0531232999638,431.3215618999675,2,normal,0.2850098004564643,[-0.125],[0.07777777777777778],[1],[0],[0],[2.2850098004564643],431.32199339941144,431.3365943999961,0.00028609950095415115,431.63639599923044,432.8380886996165,[],[],[],[],[],[],,,,,,,,,,Kelsey,Kelsey,2024-11-22_13h31.35.479,Foreperiod_task,2024.2.1post4,59.87059544845408,2024-11-22 13h31.48.355505 -0800,
31,0,31,[-0.125],[0.07777777777777778],[1],[0],[0],[2.319259699434042],[],[],[],[],[],[],,,,1,0,1,0,31,0,31,0,432.85415899939835,,,,,,,,,,,,432.8383942991495,432.85415899939835,0.00024589989334344864,432.85415899939835,433.0545337991789,434.83952149935067,434.83952149935067,434.83952149935067,434.8561544995755,435.158631099388,2,normal,0.319259699434042,[-0.125],[0.07777777777777778],[1],[0],[0],[2.319259699434042],435.159175299108,435.1731172995642,0.0003690999001264572,435.47320759948343,436.7407839000225,[],[],[],[],[],[],,,,,,,,,,Kelsey,Kelsey,2024-11-22_13h31.35.479,Foreperiod_task,2024.2.1post4,59.87059544845408,2024-11-22 13h31.48.355505 -0800,
32,0,32,[-0.125],[0.07777777777777778],[1],[0],[0],[2.41971439961344],[],[],[],[],[],[],,,,1,0,1,0,32,0,32,0,436.75704889930785,,,,,,,,,,,,436.74090479966253,436.75704889930785,9.409990161657333e-05,436.75704889930785,436.95734409987926,438.7426430992782,438.7426430992782,438.7426430992782,438.7593720993027,439.1613446995616,2,normal,0.41971439961344004,[-0.125],[0.07777777777777778],[1],[0],[0],[2.41971439961344],439.1621876992285,439.17648189980537,0.0003481004387140274,439.47682939935476,440.4114938993007,[],[],[],[],[],[],,,,,,,,,,Kelsey,Kelsey,2024-11-22_13h31.35.479,Foreperiod_task,2024.2.1post4,59.87059544845408,2024-11-22 13h31.48.355505 -0800,
33,0,33,[-0.125],[0.07777777777777778],[1],[0],[0],[2.2848477996885777],[],[],[],[],[],[],,,,1,0,1,0,33,0,33,0,440.42746599949896,,,,,,,,,,,,440.41182179935277,440.42746599949896,0.00026030000299215317,440.42746599949896,440.627759299241,442.412281899713,442.412281899713,442.412281899713,442.42899619974196,442.69738999940455,2,normal,0.28484779968857765,[-0.125],[0.07777777777777778],[1],[0],[0],[2.2848477996885777],442.6977745993063,442.712752699852,0.0002798996865749359,443.01280009932816,444.29749749973416,[],[],[],[],[],[],,,,,,,,,,Kelsey,Kelsey,2024-11-22_13h31.35.479,Foreperiod_task,2024.2.1post4,59.87059544845408,2024-11-22 13h31.48.355505 -0800,
34,0,34,[-0.125],[0.07777777777777778],[1],[0],[0],[0.8010077998042107],[],[],[],[],[],[],,,,1,0,1,0,34,0,34,0,444.3141689999029,,,,,,,,,,,,444.2977814991027,444.3141689999029,0.00023460015654563904,444.3141689999029,444.514141199179,444.7979058995843,444.7979058995843,444.7979058995843,444.8144739996642,445.09954189974815,0.5,normal,0.30100779980421066,[-0.125],[0.07777777777777778],[1],[0],[0],[0.8010077998042107],445.10003199987113,445.1147454995662,0.0003608996048569679,445.414776799269,446.3999234000221,[],[],[],[],[],[],,,,,,,,,,Kelsey,Kelsey,2024-11-22_13h31.35.479,Foreperiod_task,2024.2.1post4,59.87059544845408,2024-11-22 13h31.48.355505 -0800,
35,0,35,[-0.125],[0.07777777777777778],[1],[0],[0],[1.5172277996316552],[],[],[],[],[],[],,,,1,0,1,0,35,0,35,0,446.4157928992063,,,,,,,,,,,,446.4002707991749,446.4157928992063,0.00027639977633953094,446.4157928992063,446.6154860993847,447.6330936998129,447.6330936998129,447.6330936998129,447.6505691995844,447.9183829994872,1.2292236464717903,surprise,0.28800415315986494,[-0.125],[0.07777777777777778],[1],[0],[0],[1.5172277996316552],447.9188152998686,447.9337743995711,0.00028579961508512497,448.2340075997636,449.436055499129,[],[],[],[],[],[],,,,,,,,,,Kelsey,Kelsey,2024-11-22_13h31.35.479,Foreperiod_task,2024.2.1post4,59.87059544845408,2024-11-22 13h31.48.355505 -0800,
36,0,36,[-0.125],[0.07777777777777778],[1],[0],[0],[2.301160699687898],[],[],[],[],[],[],,,,1,0,1,0,36,0,36,0,449.452361099422,,,,,,,,,,,,449.43642509914935,449.452361099422,0.00029719993472099304,449.452361099422,449.66852969955653,451.4366775993258,451.4366775993258,451.4366775993258,451.4533694991842,451.738386599347,2,normal,0.30116069968789816,[-0.125],[0.07777777777777778],[1],[0],[0],[2.301160699687898],451.7387655992061,451.75364199932665,0.0002506999298930168,452.0538669992238,453.1555562997237,[],[],[],[],[],[],,,,,,,,,,Kelsey,Kelsey,2024-11-22_13h31.35.479,Foreperiod_task,2024.2.1post4,59.87059544845408,2024-11-22 13h31.48.355505 -0800,
37,0,37,[-0.125],[0.07777777777777778],[1],[0],[0],[2.284841200336814],[],[],[],[],[],[],,,,1,0,1,0,37,0,37,0,453.17139379959553,,,,,,,,,,,,453.1559043992311,453.17139379959553,0.00028380006551742554,453.17139379959553,453.3715050993487,455.156386599876,455.156386599876,455.156386599876,455.1730925999582,455.441565499641,2,normal,0.2848412003368139,[-0.125],[0.07777777777777778],[1],[0],[0],[2.284841200336814],455.4420121992007,455.4567316994071,0.0002675997093319893,455.75684909988195,457.0590618997812,[],[],[],[],[],[],,,,,,,,,,Kelsey,Kelsey,2024-11-22_13h31.35.479,Foreperiod_task,2024.2.1post4,59.87059544845408,2024-11-22 13h31.48.355505 -0800,
38,0,38,[-0.125],[0.07777777777777778],[1],[0],[0],[0.7665491998195648],[],[],[],[],[],[],,,,1,0,1,0,38,0,38,0,457.0747440997511,,,,,,,,,,,,457.0594206992537,457.0747440997511,0.00029450003057718277,457.0747440997511,457.2750458000228,457.558426999487,457.558426999487,457.558426999487,457.57504059933126,457.82667739968747,0.5,normal,0.2665491998195648,[-0.125],[0.07777777777777778],[1],[0],[0],[0.7665491998195648],457.82707519922405,457.8419580999762,0.0002680998295545578,458.14216769952327,459.17743049934506,[],[],[],[],[],[],,,,,,,,,,Kelsey,Kelsey,2024-11-22_13h31.35.479,Foreperiod_task,2024.2.1post4,59.87059544845408,2024-11-22 13h31.48.355505 -0800,
39,0,39,[-0.125],[0.07777777777777778],[1],[0],[0],[2.318184000439942],[],[],[],[],[],[],,,,1,0,1,0,39,0,39,0,459.19338019937277,,,,,,,,,,,,459.17775139957666,459.19338019937277,0.00024560000747442245,459.19338019937277,459.3933553993702,461.1780248992145,461.1780248992145,461.1780248992145,461.1947111999616,461.49674039985985,2,normal,0.3181840004399419,[-0.125],[0.07777777777777778],[1],[0],[0],[2.318184000439942],461.4971752995625,461.51180849969387,0.00029139965772628784,461.81207989994437,462.6965243993327,[],[],[],[],[],[],,,,,,,,,,Kelsey,Kelsey,2024-11-22_13h31.35.479,Foreperiod_task,2024.2.1post4,59.87059544845408,2024-11-22 13h31.48.355505 -0800,
40,0,40,[-0.125],[0.07777777777777778],[1],[0],[0],[0.8005103999748826],[],[],[],[],[],[],,,,1,0,1,0,40,0,40,0,462.71280599944293,,,,,,,,,,,,462.69681659992784,462.71280599944293,0.0002520997077226639,462.71280599944293,462.9127850998193,463.19644389953464,463.19644389953464,463.19644389953464,463.21310279984027,463.4981111995876,0.5,normal,0.3005103999748826,[-0.125],[0.07777777777777778],[1],[0],[0],[0.8005103999748826],463.498582999222,463.5134352995083,0.0003332998603582382,463.81368739996105,464.8652331000194,[],[],[],[],[],[],,,,,,,,,,Kelsey,Kelsey,2024-11-22_13h31.35.479,Foreperiod_task,2024.2.1post4,59.87059544845408,2024-11-22 13h31.48.355505 -0800,
41,0,41,[-0.125],[0.07777777777777778],[1],[0],[0],[2.318241300061345],[],[],[],[],[],[],,,,1,0,1,0,41,0,41,0,464.8813001997769,,,,,,,,,,,,464.8656814992428,464.8813001997769,0.00027189962565898895,464.8813001997769,465.08132319990546,466.86615349911153,466.86615349911153,466.86615349911153,466.8828631993383,467.1847679996863,2,normal,0.3182413000613451,[-0.125],[0.07777777777777778],[1],[0],[0],[2.318241300061345],467.1855035992339,467.19976769946516,0.0006095999851822853,467.49996799975634,468.435025899671,[],[],[],[],[],[],,,,,,,,,,Kelsey,Kelsey,2024-11-22_13h31.35.479,Foreperiod_task,2024.2.1post4,59.87059544845408,2024-11-22 13h31.48.355505 -0800,
42,0,42,[-0.125],[0.07777777777777778],[1],[0],[0],[0.8173909997567534],[],[],[],[],[],[],,,,1,0,1,0,42,0,42,0,468.4501312999055,,,,,,,,,,,,468.43528549931943,468.4501312999055,0.00019769929349422455,468.4501312999055,468.6510641993955,468.9345210995525,468.9345210995525,468.9345210995525,468.95134979952127,469.25351209938526,0.5,normal,0.31739099975675344,[-0.125],[0.07777777777777778],[1],[0],[0],[0.8173909997567534],469.25395839940757,469.26823989953846,0.0002854997292160988,469.5684479996562,470.88698889967054,[],[],[],[],[],[],,,,,,,,,,Kelsey,Kelsey,2024-11-22_13h31.35.479,Foreperiod_task,2024.2.1post4,59.87059544845408,2024-11-22 13h31.48.355505 -0800,
